build	computer.platform	date	time	subject	group	blockcode	blocknum	trialcode	trialnum	values.countRounds	values.TotaltrialCount	values.trialCount_perRound	values.noResponseCount	response	latency	values.selectionRT	values.selectedSlot	values.choice	values.currenthighestSeenPayOffSlot	values.currenthighestSeenPayOff	values.lastSeenPayOff1	values.lastSeenPayOff2	values.lastSeenPayOff3	values.lastSeenPayOff4	values.total	values.currentPayoff	values.highestPayOffSelected	values.currentHighestPayOffSlot	values.payOff1	values.payOff2	values.payOff3	values.payOff4	values.mean1	values.mean2	values.mean3	values.mean4
5.0.14.0	win	042419	18:41:33	001	1	demo	1	selection	2	0	1	1	0	slot2	1360	1360	2	2	0	0	0	0	0	0	11	11	2	4	29	11	19	38	31.1797517375903083803	10.6745827066744798373	19.8809917992408209386	37.1618152110392045984
5.0.14.0	win	042419	18:41:33	001	1	demo	1	iti	5	0	1	1	0	0	2000	1360	2	2	2	11	0	11	0	0	11	11	2	4	29	11	19	38	31.1797517375903083803	10.6745827066744798373	19.8809917992408209386	37.1618152110392045984
5.0.14.0	win	042419	18:41:33	001	1	demo	1	selection	6	0	2	2	0	slot4	796	796	4	2	2	11	0	11	0	0	49	38	2	1	41	12	22	38	37.38530558294150552	7.2049579647915207303	16.3593346989696115656	35.4707141490903836711
5.0.14.0	win	042419	18:41:33	001	1	demo	1	iti	9	0	2	2	0	0	2000	796	4	2	4	38	0	11	0	38	49	38	2	1	41	12	22	38	37.38530558294150552	7.2049579647915207303	16.3593346989696115656	35.4707141490903836711
5.0.14.0	win	042419	18:41:33	001	1	demo	1	selection	10	0	3	3	0	slot2	775	775	2	2	4	38	0	11	0	38	52	3	2	1	42	3	15	38	37.4781500877918531955	6.0595062695377599482	15.4530489894060032441	34.0707100538378924171
5.0.14.0	win	042419	18:41:33	001	1	demo	1	iti	13	0	3	3	0	0	2000	775	2	2	4	38	0	3	0	38	52	3	2	1	42	3	15	38	37.4781500877918531955	6.0595062695377599482	15.4530489894060032441	34.0707100538378924171
5.0.14.0	win	042419	18:41:33	001	1	demo	1	selection	14	0	4	4	0	slot4	815	815	4	1	4	38	0	3	0	38	85	33	2	1	42	1	20	33	39.2415110554311254987	2.1422214239455055207	16.3281863930017934194	30.1910823010710558378
5.0.14.0	win	042419	18:41:33	001	1	demo	1	iti	17	0	4	4	0	0	2000	815	4	1	4	33	0	3	0	33	85	33	2	1	42	1	20	33	39.2415110554311254987	2.1422214239455055207	16.3281863930017934194	30.1910823010710558378
5.0.14.0	win	042419	18:41:33	001	1	demo	1	selection	18	0	5	5	0	slot1	714	714	1	2	4	33	0	3	0	33	131	46	1	1	46	1	13	34	37.4770851537840954393	7.2014974408988514654	17.6836666996612379421	35.3818087916425412232
5.0.14.0	win	042419	18:41:33	001	1	demo	1	iti	21	0	5	5	0	0	2000	714	1	2	1	46	46	3	0	33	131	46	1	1	46	1	13	34	37.4770851537840954393	7.2014974408988514654	17.6836666996612379421	35.3818087916425412232
5.0.14.0	win	042419	18:41:33	001	1	game	3	selection	1	1	1	1	0	slot2	968	968	2	2	0	0	0	0	0	0	20	20	2	4	57	20	44	81	55.1921957913872418544	18.377630518629715084	45.7588110220045649612	84.7738486627828393694
5.0.14.0	win	042419	18:41:33	001	1	game	3	iti	4	1	1	1	0	0	2000	968	2	2	2	20	0	20	0	0	20	20	2	4	57	20	44	81	55.1921957913872418544	18.377630518629715084	45.7588110220045649612	84.7738486627828393694
5.0.14.0	win	042419	18:41:33	001	1	game	3	selection	5	1	2	2	0	slot3	415	415	3	2	2	20	0	20	0	0	61	41	2	4	57	14	41	79	54.4668100581877325794	14.5559592413813252421	41.7190183183400478129	79.0891088987226993368
5.0.14.0	win	042419	18:41:33	001	1	game	3	iti	8	1	2	2	0	0	2000	415	3	2	3	41	0	20	41	0	61	41	2	4	57	14	41	79	54.4668100581877325794	14.5559592413813252421	41.7190183183400478129	79.0891088987226993368
5.0.14.0	win	042419	18:41:33	001	1	game	3	selection	9	1	3	3	0	slot4	422	422	4	2	3	41	0	20	41	0	139	78	1	4	54	21	37	78	54.9502625420716910298	22.043880111352756046	39.3681458793789005313	78.1891759819872049775
5.0.14.0	win	042419	18:41:33	001	1	game	3	iti	12	1	3	3	0	0	2000	422	4	2	4	78	0	20	41	78	139	78	1	4	54	21	37	78	54.9502625420716910298	22.043880111352756046	39.3681458793789005313	78.1891759819872049775
5.0.14.0	win	042419	18:41:33	001	1	game	3	selection	13	1	4	4	0	slot4	553	553	4	1	4	78	0	20	41	78	225	86	1	4	58	24	30	86	57.4068702765296308144	23.2911840308509994202	37.4732083410292560188	77.3999073214948793975
5.0.14.0	win	042419	18:41:33	001	1	game	3	iti	16	1	4	4	0	0	2000	553	4	1	4	86	0	20	41	86	225	86	1	4	58	24	30	86	57.4068702765296308144	23.2911840308509994202	37.4732083410292560188	77.3999073214948793975
5.0.14.0	win	042419	18:41:33	001	1	game	3	selection	17	1	5	5	0	slot4	369	369	4	1	4	86	0	20	41	86	306	81	1	4	64	33	32	81	57.6283470126216030849	27.3012156900914391144	38.559167363185643751	77.8283758401694854001
5.0.14.0	win	042419	18:41:33	001	1	game	3	iti	20	1	5	5	0	0	2000	369	4	1	4	81	0	20	41	81	306	81	1	4	64	33	32	81	57.6283470126216030849	27.3012156900914391144	38.559167363185643751	77.8283758401694854001
5.0.14.0	win	042419	18:41:33	001	1	game	3	selection	21	1	6	6	0	slot1	466	466	1	2	4	81	0	20	41	81	358	52	2	4	52	30	42	68	56.4626574826940981211	25.6456297473801484443	38.1441264568735221019	74.2171447845339145033
5.0.14.0	win	042419	18:41:33	001	1	game	3	iti	24	1	6	6	0	0	2000	466	1	2	4	81	52	20	41	81	358	52	2	4	52	30	42	68	56.4626574826940981211	25.6456297473801484443	38.1441264568735221019	74.2171447845339145033
5.0.14.0	win	042419	18:41:33	001	1	game	3	selection	25	1	7	7	0	slot4	606	606	4	1	4	81	52	20	41	81	429	71	1	4	57	18	47	71	55.0082205040319252021	24.0520309612224210127	41.2767678410756602148	73.61469377735038222
5.0.14.0	win	042419	18:41:33	001	1	game	3	iti	28	1	7	7	0	0	2000	606	4	1	4	71	52	20	41	71	429	71	1	4	57	18	47	71	55.0082205040319252021	24.0520309612224210127	41.2767678410756602148	73.61469377735038222
5.0.14.0	win	042419	18:41:33	001	1	game	3	selection	29	1	8	8	0	slot4	466	466	4	1	4	71	52	20	41	71	506	77	1	4	50	26	47	77	50.4723901958663319078	21.6651752503816439344	44.9233343569096845727	75.4267683152271359859
5.0.14.0	win	042419	18:41:33	001	1	game	3	iti	32	1	8	8	0	0	2000	466	4	1	4	77	52	20	41	77	506	77	1	4	50	26	47	77	50.4723901958663319078	21.6651752503816439344	44.9233343569096845727	75.4267683152271359859
5.0.14.0	win	042419	18:41:33	001	1	game	3	selection	33	1	9	9	0	slot4	368	368	4	1	4	77	52	20	41	77	580	74	1	4	57	21	49	74	49.9243050965181112133	25.4069748480793542456	44.6211477012043289392	77.4595276495259525973
5.0.14.0	win	042419	18:41:33	001	1	game	3	iti	36	1	9	9	0	0	2000	368	4	1	4	74	52	20	41	74	580	74	1	4	57	21	49	74	49.9243050965181112133	25.4069748480793542456	44.6211477012043289392	77.4595276495259525973
5.0.14.0	win	042419	18:41:33	001	1	game	3	selection	37	1	10	10	0	slot4	432	432	4	1	4	74	52	20	41	74	650	70	1	4	50	22	53	70	47.5474402130012236967	26.250226603941719361	45.4314740522401976364	75.7627366676671840651
5.0.14.0	win	042419	18:41:33	001	1	game	3	iti	40	1	10	10	0	0	2000	432	4	1	4	70	52	20	41	70	650	70	1	4	50	22	53	70	47.5474402130012236967	26.250226603941719361	45.4314740522401976364	75.7627366676671840651
5.0.14.0	win	042419	18:41:33	001	1	game	3	selection	41	1	11	11	0	slot4	406	406	4	1	4	70	52	20	41	70	723	73	1	4	50	16	49	73	48.7273989991194085292	22.3102505899302485659	48.206234448733589204	76.2683894067822478746
5.0.14.0	win	042419	18:41:33	001	1	game	3	iti	44	1	11	11	0	0	2000	406	4	1	4	73	52	20	41	73	723	73	1	4	50	16	49	73	48.7273989991194085292	22.3102505899302485659	48.206234448733589204	76.2683894067822478746
5.0.14.0	win	042419	18:41:33	001	1	game	3	selection	45	1	12	12	0	slot4	576	576	4	1	4	73	52	20	41	73	803	80	1	4	50	20	44	80	45.6714122114331289026	22.1628061280576034164	48.8743027536768579466	75.0187582926768783409
5.0.14.0	win	042419	18:41:33	001	1	game	3	iti	48	1	12	12	0	0	2000	576	4	1	4	80	52	20	41	80	803	80	1	4	50	20	44	80	45.6714122114331289026	22.1628061280576034164	48.8743027536768579466	75.0187582926768783409
5.0.14.0	win	042419	18:41:33	001	1	game	3	selection	49	1	13	13	0	slot4	380	380	4	1	4	80	52	20	41	80	877	74	1	4	37	20	47	74	43.7209851187572553499	19.9198665750527865725	49.1901603194039864775	75.6188623669171988695
5.0.14.0	win	042419	18:41:33	001	1	game	3	iti	52	1	13	13	0	0	2000	380	4	1	4	74	52	20	41	74	877	74	1	4	37	20	47	74	43.7209851187572553499	19.9198665750527865725	49.1901603194039864775	75.6188623669171988695
5.0.14.0	win	042419	18:41:33	001	1	game	3	selection	53	1	14	14	0	slot4	383	383	4	1	4	74	52	20	41	74	955	78	1	4	37	16	43	78	41.1027317816416939422	19.9680203522201544786	49.933624896207653876	78.0127296061523054505
5.0.14.0	win	042419	18:41:33	001	1	game	3	iti	56	1	14	14	0	0	2000	383	4	1	4	78	52	20	41	78	955	78	1	4	37	16	43	78	41.1027317816416939422	19.9680203522201544786	49.933624896207653876	78.0127296061523054505
5.0.14.0	win	042419	18:41:33	001	1	game	3	selection	57	1	15	15	0	slot2	746	746	2	2	4	78	52	20	41	78	970	15	2	4	41	15	54	71	46.3756576087866889679	21.2779614203541171946	49.5803689998287921981	79.4479546382130337179
5.0.14.0	win	042419	18:41:33	001	1	game	3	iti	60	1	15	15	0	0	2000	746	2	2	4	78	52	15	41	78	970	15	2	4	41	15	54	71	46.3756576087866889679	21.2779614203541171946	49.5803689998287921981	79.4479546382130337179
5.0.14.0	win	042419	18:41:33	001	1	game	3	selection	61	1	16	16	0	slot3	381	381	3	2	4	78	52	15	41	78	1021	51	2	4	49	15	51	79	49.5765855265016526232	18.6270722652141031972	49.0089723169997455443	79.1969234256992535848
5.0.14.0	win	042419	18:41:33	001	1	game	3	iti	64	1	16	16	0	0	2000	381	3	2	4	78	52	15	51	78	1021	51	2	4	49	15	51	79	49.5765855265016526232	18.6270722652141031972	49.0089723169997455443	79.1969234256992535848
5.0.14.0	win	042419	18:41:33	001	1	game	3	selection	65	1	17	17	0	slot1	401	401	1	2	4	78	52	15	51	78	1081	60	2	4	60	16	47	72	54.7066914274681863617	20.110826807141325645	49.8514777772229962238	74.1087810514603262391
5.0.14.0	win	042419	18:41:33	001	1	game	3	iti	68	1	17	17	0	0	2000	401	1	2	4	78	60	15	51	78	1081	60	2	4	60	16	47	72	54.7066914274681863617	20.110826807141325645	49.8514777772229962238	74.1087810514603262391
5.0.14.0	win	042419	18:41:33	001	1	game	3	selection	69	1	18	18	0	slot4	391	391	4	1	4	78	60	15	51	78	1150	69	1	4	63	25	55	69	55.3858960496440815291	28.2995835939477551335	53.9609149352526742405	69.7136591449706628509
5.0.14.0	win	042419	18:41:33	001	1	game	3	iti	72	1	18	18	0	0	2000	391	4	1	4	69	60	15	51	69	1150	69	1	4	63	25	55	69	55.3858960496440815291	28.2995835939477551335	53.9609149352526742405	69.7136591449706628509
5.0.14.0	win	042419	18:41:33	001	1	game	3	selection	73	1	19	19	0	slot4	411	411	4	1	4	69	60	15	51	69	1216	66	1	4	51	31	52	66	52.1528218661143156964	30.2612191974731352673	50.9710523450055603689	67.1916743607251589765
5.0.14.0	win	042419	18:41:33	001	1	game	3	iti	76	1	19	19	0	0	2000	411	4	1	4	66	60	15	51	66	1216	66	1	4	51	31	52	66	52.1528218661143156964	30.2612191974731352673	50.9710523450055603689	67.1916743607251589765
5.0.14.0	win	042419	18:41:33	001	1	game	3	selection	77	1	20	20	0	slot4	682	682	4	1	4	66	60	15	51	66	1284	68	1	4	42	21	44	68	53.255825180693577181	28.0424985663413579573	50.3111585622134214191	67.9361530822110495365
5.0.14.0	win	042419	18:41:33	001	1	game	3	iti	80	1	20	20	0	0	2000	682	4	1	4	68	60	15	51	68	1284	68	1	4	42	21	44	68	53.255825180693577181	28.0424985663413579573	50.3111585622134214191	67.9361530822110495365
5.0.14.0	win	042419	18:41:33	001	1	game	3	selection	81	1	21	21	0	slot4	713	713	4	1	4	68	60	15	51	68	1340	56	1	4	52	30	55	56	50.0216045772024102689	29.5199613282397237413	52.3722340796236309757	63.8327264963292293487
5.0.14.0	win	042419	18:41:33	001	1	game	3	iti	84	1	21	21	0	0	2000	713	4	1	1	60	60	15	51	56	1340	56	1	4	52	30	55	56	50.0216045772024102689	29.5199613282397237413	52.3722340796236309757	63.8327264963292293487
5.0.14.0	win	042419	18:41:33	001	1	game	3	selection	85	1	22	22	0	slot1	411	411	1	1	1	60	60	15	51	56	1387	47	2	4	47	31	49	69	49.810362434741030313	31.2912425155703566304	51.2401867478699486469	71.5253493566047211516
5.0.14.0	win	042419	18:41:33	001	1	game	3	iti	88	1	22	22	0	0	2000	411	1	1	4	56	47	15	51	56	1387	47	2	4	47	31	49	69	49.810362434741030313	31.2912425155703566304	51.2401867478699486469	71.5253493566047211516
5.0.14.0	win	042419	18:41:33	001	1	game	3	selection	89	1	23	23	0	slot3	799	799	3	2	4	56	47	15	51	56	1434	47	2	4	44	39	47	72	49.5426845740262535855	31.040117084179776441	50.6694795896843430683	68.9719443235327815955
5.0.14.0	win	042419	18:41:33	001	1	game	3	iti	92	1	23	23	0	0	2000	799	3	2	4	56	47	15	47	56	1434	47	2	4	44	39	47	72	49.5426845740262535855	31.040117084179776441	50.6694795896843430683	68.9719443235327815955
5.0.14.0	win	042419	18:41:33	001	1	game	3	selection	93	1	24	24	0	slot2	363	363	2	2	4	56	47	15	47	56	1467	33	2	4	50	33	54	67	51.9795270129972948325	33.1109151208655987375	56.0858131632602194827	70.8259775036689376293
5.0.14.0	win	042419	18:41:33	001	1	game	3	iti	96	1	24	24	0	0	2000	363	2	2	4	56	47	33	47	56	1467	33	2	4	50	33	54	67	51.9795270129972948325	33.1109151208655987375	56.0858131632602194827	70.8259775036689376293
5.0.14.0	win	042419	18:41:33	001	1	game	3	selection	97	1	25	25	0	slot4	390	390	4	1	4	56	47	33	47	56	1540	73	1	4	51	39	56	73	51.5469353960010039373	34.1002366126919511657	53.563315620252147653	71.0094983475935208617
5.0.14.0	win	042419	18:41:33	001	1	game	3	iti	100	1	25	25	0	0	2000	390	4	1	4	73	47	33	47	73	1540	73	1	4	51	39	56	73	51.5469353960010039373	34.1002366126919511657	53.563315620252147653	71.0094983475935208617
5.0.14.0	win	042419	18:41:33	001	1	game	3	selection	101	1	26	26	0	slot4	371	371	4	1	4	73	47	33	47	73	1603	63	1	4	57	35	52	63	50.7748355476998725067	29.6804827323371256398	56.1163628736332142921	66.9730972355494884596
5.0.14.0	win	042419	18:41:33	001	1	game	3	iti	104	1	26	26	0	0	2000	371	4	1	4	63	47	33	47	63	1603	63	1	4	57	35	52	63	50.7748355476998725067	29.6804827323371256398	56.1163628736332142921	66.9730972355494884596
5.0.14.0	win	042419	18:41:33	001	1	game	3	selection	105	1	27	27	0	slot4	337	337	4	1	4	63	47	33	47	63	1665	62	1	4	54	28	56	62	54.0762717111213575549	28.1933259958145612245	57.6554176961100708354	60.1237966200960940455
5.0.14.0	win	042419	18:41:33	001	1	game	3	iti	108	1	27	27	0	0	2000	337	4	1	4	62	47	33	47	62	1665	62	1	4	54	28	56	62	54.0762717111213575549	28.1933259958145612245	57.6554176961100708354	60.1237966200960940455
5.0.14.0	win	042419	18:41:33	001	1	game	3	selection	109	1	28	28	0	slot4	398	398	4	1	4	62	47	33	47	62	1712	47	2	1	60	29	50	47	56.7156120655932340924	30.7291932420574198659	55.5232227527011161783	55.1633798600171658677
5.0.14.0	win	042419	18:41:33	001	1	game	3	iti	112	1	28	28	0	0	2000	398	4	1	1	47	47	33	47	47	1712	47	2	1	60	29	50	47	56.7156120655932340924	30.7291932420574198659	55.5232227527011161783	55.1633798600171658677
5.0.14.0	win	042419	18:41:33	001	1	game	3	selection	113	1	29	29	0	slot1	889	889	1	1	1	47	47	33	47	47	1773	61	2	4	61	33	51	62	56.0670471164336845504	31.649348966732549826	52.9377626649420776062	57.910391113816814368
5.0.14.0	win	042419	18:41:33	001	1	game	3	iti	116	1	29	29	0	0	2000	889	1	1	1	61	61	33	47	47	1773	61	2	4	61	33	51	62	56.0670471164336845504	31.649348966732549826	52.9377626649420776062	57.910391113816814368
5.0.14.0	win	042419	18:41:33	001	1	game	3	selection	117	1	30	30	0	slot1	896	896	1	1	1	61	61	33	47	47	1829	56	2	4	56	27	55	60	56.9055744549033235558	30.7452310429544297676	55.5994689233625720703	59.1350402814815225838
5.0.14.0	win	042419	18:41:33	001	1	game	3	iti	120	1	30	30	0	0	2000	896	1	1	1	56	56	33	47	47	1829	56	2	4	56	27	55	60	56.9055744549033235558	30.7452310429544297676	55.5994689233625720703	59.1350402814815225838
5.0.14.0	win	042419	18:41:33	001	1	game	3	selection	121	1	31	31	0	slot4	391	391	4	2	1	56	56	33	47	47	1883	54	2	1	58	32	51	54	59.2567118799531939999	34.0799631835466740881	55.6428459673857602752	58.6283831972548696854
5.0.14.0	win	042419	18:41:33	001	1	game	3	iti	124	1	31	31	0	0	2000	391	4	2	1	56	56	33	47	54	1883	54	2	1	58	32	51	54	59.2567118799531939999	34.0799631835466740881	55.6428459673857602752	58.6283831972548696854
5.0.14.0	win	042419	18:41:33	001	1	game	3	selection	125	1	32	32	0	slot4	411	411	4	2	1	56	56	33	47	54	1934	51	2	3	53	33	63	51	57.653769240344772129	33.914355823658063116	59.5967856879925790281	59.3671068834129016523
5.0.14.0	win	042419	18:41:33	001	1	game	3	iti	128	1	32	32	0	0	2000	411	4	2	1	56	56	33	47	51	1934	51	2	3	53	33	63	51	57.653769240344772129	33.914355823658063116	59.5967856879925790281	59.3671068834129016523
5.0.14.0	win	042419	18:41:33	001	1	game	3	selection	129	1	33	33	0	slot1	813	813	1	1	1	56	56	33	47	51	1990	56	2	4	56	34	55	60	59.4532312939759393089	35.2677962918151948202	57.4950721503852761884	61.5326259782906532791
5.0.14.0	win	042419	18:41:33	001	1	game	3	iti	132	1	33	33	0	0	2000	813	1	1	1	56	56	33	47	51	1990	56	2	4	56	34	55	60	59.4532312939759393089	35.2677962918151948202	57.4950721503852761884	61.5326259782906532791
5.0.14.0	win	042419	18:41:33	001	1	game	3	selection	133	1	34	34	0	slot4	573	573	4	2	1	56	56	33	47	51	2053	63	2	1	65	37	56	63	62.6844522606647700513	33.8633887845913079673	57.2926995375060315041	59.6295857636747186348
5.0.14.0	win	042419	18:41:33	001	1	game	3	iti	136	1	34	34	0	0	2000	573	4	2	4	63	56	33	47	63	2053	63	2	1	65	37	56	63	62.6844522606647700513	33.8633887845913079673	57.2926995375060315041	59.6295857636747186348
5.0.14.0	win	042419	18:41:33	001	1	game	3	selection	137	1	35	35	0	slot4	704	704	4	1	4	63	56	33	47	63	2113	60	1	4	55	37	51	60	62.6082504491998577123	36.0610598444708898569	54.213422382597592275	58.745878356861091163
5.0.14.0	win	042419	18:41:33	001	1	game	3	iti	140	1	35	35	0	0	2000	704	4	1	4	60	56	33	47	60	2113	60	1	4	55	37	51	60	62.6082504491998577123	36.0610598444708898569	54.213422382597592275	58.745878356861091163
5.0.14.0	win	042419	18:41:33	001	1	game	3	selection	141	1	36	36	0	slot4	387	387	4	1	4	60	56	33	47	60	2169	56	2	1	57	35	48	56	54.8969182604885048704	32.1454314963135558969	49.4863062584383683884	56.8787262949573886317
5.0.14.0	win	042419	18:41:33	001	1	game	3	iti	144	1	36	36	0	0	2000	387	4	1	1	56	56	33	47	56	2169	56	2	1	57	35	48	56	54.8969182604885048704	32.1454314963135558969	49.4863062584383683884	56.8787262949573886317
5.0.14.0	win	042419	18:41:33	001	1	game	3	selection	145	1	37	37	0	slot4	571	571	4	2	1	56	56	33	47	56	2232	63	1	4	56	26	57	63	52.3738669535865781768	28.4552772811694190125	53.1541788877114029788	60.4890716187784391877
5.0.14.0	win	042419	18:41:33	001	1	game	3	iti	148	1	37	37	0	0	2000	571	4	2	4	63	56	33	47	63	2232	63	1	4	56	26	57	63	52.3738669535865781768	28.4552772811694190125	53.1541788877114029788	60.4890716187784391877
5.0.14.0	win	042419	18:41:33	001	1	game	3	selection	149	1	38	38	0	slot4	794	794	4	1	4	63	56	33	47	63	2286	54	2	3	50	21	56	54	50.0922410614506503634	23.6139238060995282353	56.5207152284610927495	59.1321669136347480844
5.0.14.0	win	042419	18:41:33	001	1	game	3	iti	152	1	38	38	0	0	2000	794	4	1	1	56	56	33	47	54	2286	54	2	3	50	21	56	54	50.0922410614506503634	23.6139238060995282353	56.5207152284610927495	59.1321669136347480844
5.0.14.0	win	042419	18:41:33	001	1	game	3	selection	153	1	39	39	0	slot1	380	380	1	1	1	56	56	33	47	54	2337	51	2	3	51	22	52	43	49.8931247019192980474	24.0685253651546631204	55.3014435461524129778	53.0301512983841263349
5.0.14.0	win	042419	18:41:33	001	1	game	3	iti	156	1	39	39	0	0	2000	380	1	1	4	54	51	33	47	54	2337	51	2	3	51	22	52	43	49.8931247019192980474	24.0685253651546631204	55.3014435461524129778	53.0301512983841263349
5.0.14.0	win	042419	18:41:33	001	1	game	3	selection	157	1	40	40	0	slot3	588	588	3	2	4	54	51	33	47	54	2386	49	2	4	40	29	49	54	44.42969416327876786	28.0285479533376502559	56.8463780403275151798	57.2225504767788564209
5.0.14.0	win	042419	18:41:33	001	1	game	3	iti	160	1	40	40	0	0	2000	588	3	2	4	54	51	33	49	54	2386	49	2	4	40	29	49	54	44.42969416327876786	28.0285479533376502559	56.8463780403275151798	57.2225504767788564209
5.0.14.0	win	042419	18:41:33	001	1	game	3	selection	161	1	41	41	0	slot2	417	417	2	2	4	54	51	33	49	54	2420	34	2	4	44	34	61	62	43.7381704608393846456	30.1273641378444807515	60.3619318258678276834	58.9291520386873557413
5.0.14.0	win	042419	18:41:33	001	1	game	3	iti	164	1	41	41	0	0	2000	417	2	2	4	54	51	34	49	54	2420	34	2	4	44	34	61	62	43.7381704608393846456	30.1273641378444807515	60.3619318258678276834	58.9291520386873557413
5.0.14.0	win	042419	18:41:33	001	1	game	3	selection	165	1	42	42	0	slot4	314	314	4	1	4	54	51	34	49	54	2485	65	1	4	44	27	62	65	43.0041619202743063965	28.119697969763048917	56.9312910333531618789	58.0020837528930996996
5.0.14.0	win	042419	18:41:33	001	1	game	3	iti	168	1	42	42	0	0	2000	314	4	1	4	65	51	34	49	65	2485	65	1	4	44	27	62	65	43.0041619202743063965	28.119697969763048917	56.9312910333531618789	58.0020837528930996996
5.0.14.0	win	042419	18:41:33	001	1	game	3	selection	169	1	43	43	0	slot4	330	330	4	1	4	65	51	34	49	65	2544	59	1	4	40	30	54	59	40.0058854099861491704	30.1043549563846823958	56.2746913623266067361	61.2736871043346909005
5.0.14.0	win	042419	18:41:33	001	1	game	3	iti	172	1	43	43	0	0	2000	330	4	1	4	59	51	34	49	59	2544	59	1	4	40	30	54	59	40.0058854099861491704	30.1043549563846823958	56.2746913623266067361	61.2736871043346909005
5.0.14.0	win	042419	18:41:33	001	1	game	3	selection	173	1	44	44	0	slot4	411	411	4	1	4	59	51	34	49	59	2613	69	1	4	37	34	65	69	37.707396114925110453	31.5527532816560523088	62.1271682539130480905	59.9956143385290943115
5.0.14.0	win	042419	18:41:33	001	1	game	3	iti	176	1	44	44	0	0	2000	411	4	1	4	69	51	34	49	69	2613	69	1	4	37	34	65	69	37.707396114925110453	31.5527532816560523088	62.1271682539130480905	59.9956143385290943115
5.0.14.0	win	042419	18:41:33	001	1	game	3	selection	177	1	45	45	0	slot4	421	421	4	1	4	69	51	34	49	69	2679	66	1	4	44	38	62	66	37.7233386783865825009	28.7481566449582643941	59.2399750371978086605	62.58780568675067002
5.0.14.0	win	042419	18:41:33	001	1	game	3	iti	180	1	45	45	0	0	2000	421	4	1	4	66	51	34	49	66	2679	66	1	4	44	38	62	66	37.7233386783865825009	28.7481566449582643941	59.2399750371978086605	62.58780568675067002
5.0.14.0	win	042419	18:41:33	001	1	game	3	selection	181	1	46	46	0	slot4	382	382	4	1	4	66	51	34	49	66	2740	61	1	4	41	23	55	61	42.530894097383914243	26.1089272116534054646	57.5035974078783880259	61.7586680068609226169
5.0.14.0	win	042419	18:41:33	001	1	game	3	iti	184	1	46	46	0	0	2000	382	4	1	4	61	51	34	49	61	2740	61	1	4	41	23	55	61	42.530894097383914243	26.1089272116534054646	57.5035974078783880259	61.7586680068609226169
5.0.14.0	win	042419	18:41:33	001	1	game	3	selection	185	1	47	47	0	slot4	90	90	4	1	4	61	51	34	49	61	2804	64	1	4	40	25	62	64	39.845959901156277283	24.8373590454266448546	60.4246371212613482271	58.2485940423262675836
5.0.14.0	win	042419	18:41:33	001	1	game	3	iti	188	1	47	47	0	0	2000	90	4	1	4	64	51	34	49	64	2804	64	1	4	40	25	62	64	39.845959901156277283	24.8373590454266448546	60.4246371212613482271	58.2485940423262675836
5.0.14.0	win	042419	18:41:33	001	1	game	3	selection	189	1	48	48	0	slot4	359	359	4	1	4	64	51	34	49	64	2859	55	2	3	40	14	58	55	40.875275697646358708	16.8123280094303986232	60.0928190164576250254	56.0495359623097968438
5.0.14.0	win	042419	18:41:33	001	1	game	3	iti	192	1	48	48	0	0	2000	359	4	1	4	55	51	34	49	55	2859	55	2	3	40	14	58	55	40.875275697646358708	16.8123280094303986232	60.0928190164576250254	56.0495359623097968438
5.0.14.0	win	042419	18:41:33	001	1	game	3	selection	193	1	49	49	0	slot1	331	331	1	2	4	55	51	34	49	55	2906	47	2	3	47	16	60	58	44.6771546572950981613	15.4180069390938658813	56.8561165239326129495	57.0523265316914987011
5.0.14.0	win	042419	18:41:33	001	1	game	3	iti	196	1	49	49	0	0	2000	331	1	2	4	55	47	34	49	55	2906	47	2	3	47	16	60	58	44.6771546572950981613	15.4180069390938658813	56.8561165239326129495	57.0523265316914987011
5.0.14.0	win	042419	18:41:33	001	1	game	3	selection	197	1	50	50	0	slot4	373	373	4	1	4	55	47	34	49	55	2963	57	1	4	35	3	41	57	40.8908723084494596378	12.6428956161812529047	49.2065296622693253425	56.2980142124534097547
5.0.14.0	win	042419	18:41:33	001	1	game	3	iti	200	1	50	50	0	0	2000	373	4	1	4	57	47	34	49	57	2963	57	1	4	35	3	41	57	40.8908723084494596378	12.6428956161812529047	49.2065296622693253425	56.2980142124534097547
5.0.14.0	win	042419	18:41:33	001	1	game	3	selection	201	1	51	51	0	slot4	436	436	4	1	4	57	47	34	49	57	3024	61	1	4	38	17	49	61	43.1420781804585331543	17.8716111072528107684	42.8550723214478637146	58.3968085571975379366
5.0.14.0	win	042419	18:41:33	001	1	game	3	iti	204	1	51	51	0	0	2000	436	4	1	4	61	47	34	49	61	3024	61	1	4	38	17	49	61	43.1420781804585331543	17.8716111072528107684	42.8550723214478637146	58.3968085571975379366
5.0.14.0	win	042419	18:41:33	001	1	game	3	selection	205	1	52	52	0	slot4	390	390	4	1	4	61	47	34	49	61	3077	53	1	4	47	23	41	53	45.9831750204336557886	14.6717324641930453311	38.3245265318440999636	56.8220198058501182459
5.0.14.0	win	042419	18:41:33	001	1	game	3	iti	208	1	52	52	0	0	2000	390	4	1	4	53	47	34	49	53	3077	53	1	4	47	23	41	53	45.9831750204336557886	14.6717324641930453311	38.3245265318440999636	56.8220198058501182459
5.0.14.0	win	042419	18:41:33	001	1	game	3	selection	209	1	53	53	0	slot4	481	481	4	1	4	53	47	34	49	53	3139	62	1	4	46	17	42	62	46.7812762754411863853	14.4890661238929912003	39.963120198935698113	58.7040374940063571785
5.0.14.0	win	042419	18:41:33	001	1	game	3	iti	212	1	53	53	0	0	2000	481	4	1	4	62	47	34	49	62	3139	62	1	4	46	17	42	62	46.7812762754411863853	14.4890661238929912003	39.963120198935698113	58.7040374940063571785
5.0.14.0	win	042419	18:41:33	001	1	game	3	selection	213	1	54	54	0	slot4	352	352	4	1	4	62	47	34	49	62	3202	63	1	4	51	18	36	63	47.6390457544510113053	18.5649531691489251273	37.1389878758608489306	58.5891779961534382437
5.0.14.0	win	042419	18:41:33	001	1	game	3	iti	216	1	54	54	0	0	2000	352	4	1	4	63	47	34	49	63	3202	63	1	4	51	18	36	63	47.6390457544510113053	18.5649531691489251273	37.1389878758608489306	58.5891779961534382437
5.0.14.0	win	042419	18:41:33	001	1	game	3	selection	217	1	55	55	0	slot4	75	75	4	1	4	63	47	34	49	63	3263	61	1	4	51	10	35	61	46.3522444013565007026	15.8293662161940620337	35.6268660652124466992	55.8892562034861697384
5.0.14.0	win	042419	18:41:33	001	1	game	3	iti	220	1	55	55	0	0	2000	75	4	1	4	61	47	34	49	61	3263	61	1	4	51	10	35	61	46.3522444013565007026	15.8293662161940620337	35.6268660652124466992	55.8892562034861697384
5.0.14.0	win	042419	18:41:33	001	1	game	3	selection	221	1	56	56	0	slot4	399	399	4	1	4	61	47	34	49	61	3321	58	1	4	49	11	36	58	49.9621585105843450947	16.4420468128978107814	36.6728169203798088915	58.5985999229498872864
5.0.14.0	win	042419	18:41:33	001	1	game	3	iti	224	1	56	56	0	0	2000	399	4	1	4	58	47	34	49	58	3321	58	1	4	49	11	36	58	49.9621585105843450947	16.4420468128978107814	36.6728169203798088915	58.5985999229498872864
5.0.14.0	win	042419	18:41:33	001	1	game	3	selection	225	1	57	57	0	slot4	540	540	4	1	4	58	47	34	49	58	3383	62	1	4	51	19	37	62	52.1128571613174074173	19.1276502029715480546	34.1344251967508540702	58.8954000281765388536
5.0.14.0	win	042419	18:41:33	001	1	game	3	iti	228	1	57	57	0	0	2000	540	4	1	4	62	47	34	49	62	3383	62	1	4	51	19	37	62	52.1128571613174074173	19.1276502029715480546	34.1344251967508540702	58.8954000281765388536
5.0.14.0	win	042419	18:41:33	001	1	game	3	selection	229	1	58	58	0	slot4	738	738	4	1	4	62	47	34	49	62	3434	51	1	4	46	12	33	51	48.9265183359783506489	18.2742534807845942169	34.2934366654786089157	58.6344486397555115786
5.0.14.0	win	042419	18:41:33	001	1	game	3	iti	232	1	58	58	0	0	2000	738	4	1	4	51	47	34	49	51	3434	51	1	4	46	12	33	51	48.9265183359783506489	18.2742534807845942169	34.2934366654786089157	58.6344486397555115786
5.0.14.0	win	042419	18:41:33	001	1	game	3	selection	233	1	59	59	0	slot2	370	370	2	2	4	51	47	34	49	51	3454	20	2	1	56	20	34	51	52.339595923354494289	27.1622116044040602389	35.2358983517334181101	57.1728580481179022854
5.0.14.0	win	042419	18:41:33	001	1	game	3	iti	236	1	59	59	0	0	2000	370	2	2	4	51	47	20	49	51	3454	20	2	1	56	20	34	51	52.339595923354494289	27.1622116044040602389	35.2358983517334181101	57.1728580481179022854
5.0.14.0	win	042419	18:41:33	001	1	game	3	selection	237	1	60	60	0	slot3	471	471	3	2	4	51	47	20	49	51	3493	39	2	4	49	34	39	53	48.7148887797711012126	33.9425972570974323617	35.2451410282504511429	55.4632237116604969174
5.0.14.0	win	042419	18:41:33	001	1	game	3	iti	240	1	60	60	0	0	2000	471	3	2	4	51	47	20	39	51	3493	39	2	4	49	34	39	53	48.7148887797711012126	33.9425972570974323617	35.2451410282504511429	55.4632237116604969174
5.0.14.0	win	042419	18:41:33	001	1	game	3	selection	241	1	61	61	0	slot4	428	428	4	1	4	51	47	20	39	51	3549	56	1	4	53	45	43	56	54.2875366065376354641	35.5445613123986987603	38.6826765040943101326	56.0643373556251489731
5.0.14.0	win	042419	18:41:33	001	1	game	3	iti	244	1	61	61	0	0	2000	428	4	1	4	56	47	20	39	56	3549	56	1	4	53	45	43	56	54.2875366065376354641	35.5445613123986987603	38.6826765040943101326	56.0643373556251489731
5.0.14.0	win	042419	18:41:33	001	1	game	3	selection	245	1	62	62	0	slot4	51	51	4	1	4	56	47	20	39	56	3602	53	2	1	56	35	38	53	53.6757100213604019245	37.303447362351910499	35.320415699455622871	54.7136147820576752565
5.0.14.0	win	042419	18:41:33	001	1	game	3	iti	248	1	62	62	0	0	2000	51	4	1	4	53	47	20	39	53	3602	53	2	1	56	35	38	53	53.6757100213604019245	37.303447362351910499	35.320415699455622871	54.7136147820576752565
5.0.14.0	win	042419	18:41:33	001	1	game	3	selection	249	1	63	63	0	slot4	610	610	4	1	4	53	47	20	39	53	3656	54	2	1	57	35	39	54	53.3475373543860129644	34.8244010447484129145	42.7216309530692299745	53.0593934140916374531
5.0.14.0	win	042419	18:41:33	001	1	game	3	iti	252	1	63	63	0	0	2000	610	4	1	4	54	47	20	39	54	3656	54	2	1	57	35	39	54	53.3475373543860129644	34.8244010447484129145	42.7216309530692299745	53.0593934140916374531
5.0.14.0	win	042419	18:41:33	001	1	game	3	selection	253	1	64	64	0	slot1	395	395	1	2	4	54	47	20	39	54	3706	50	1	1	50	35	39	47	49.8461940848806790427	31.0912220404734433998	41.7784985158631414492	48.0290795736829565499
5.0.14.0	win	042419	18:41:33	001	1	game	3	iti	256	1	64	64	0	0	2000	395	1	2	4	54	50	20	39	54	3706	50	1	1	50	35	39	47	49.8461940848806790427	31.0912220404734433998	41.7784985158631414492	48.0290795736829565499
5.0.14.0	win	042419	18:41:33	001	1	game	3	selection	257	1	65	65	0	slot4	308	308	4	1	4	54	50	20	39	54	3753	47	2	1	48	35	42	47	46.7200995787237118861	33.5721479479999658224	44.1387708690922551114	47.5983460944766818557
5.0.14.0	win	042419	18:41:33	001	1	game	3	iti	260	1	65	65	0	0	2000	308	4	1	1	50	50	20	39	47	3753	47	2	1	48	35	42	47	46.7200995787237118861	33.5721479479999658224	44.1387708690922551114	47.5983460944766818557
5.0.14.0	win	042419	18:41:33	001	1	game	3	selection	261	1	66	66	0	slot2	218	218	2	2	1	50	50	20	39	47	3790	37	2	3	44	37	45	41	42.5725737486074962135	33.5939445498390867328	44.4221874551262203568	44.1444263257905404885
5.0.14.0	win	042419	18:41:33	001	1	game	3	iti	264	1	66	66	0	0	2000	218	2	2	1	50	50	37	39	47	3790	37	2	3	44	37	45	41	42.5725737486074962135	33.5939445498390867328	44.4221874551262203568	44.1444263257905404885
5.0.14.0	win	042419	18:41:33	001	1	game	3	selection	265	1	67	67	0	slot1	425	425	1	1	1	50	50	37	39	47	3830	40	2	3	40	32	51	49	39.8603185358217757539	34.3278273609307547076	48.3255063596208955801	47.0876621921269986615
5.0.14.0	win	042419	18:41:33	001	1	game	3	iti	268	1	67	67	0	0	2000	425	1	1	4	47	40	37	39	47	3830	40	2	3	40	32	51	49	39.8603185358217757539	34.3278273609307547076	48.3255063596208955801	47.0876621921269986615
5.0.14.0	win	042419	18:41:33	001	1	game	3	selection	269	1	68	68	0	slot4	387	387	4	1	4	47	40	37	39	47	3888	58	1	4	51	26	53	58	42.9914925459418739706	29.3743163420091626392	51.8898304064873627794	50.2219314508303327216
5.0.14.0	win	042419	18:41:33	001	1	game	3	iti	272	1	68	68	0	0	2000	387	4	1	4	58	40	37	39	58	3888	58	1	4	51	26	53	58	42.9914925459418739706	29.3743163420091626392	51.8898304064873627794	50.2219314508303327216
5.0.14.0	win	042419	18:41:33	001	1	game	3	selection	273	1	69	69	0	slot4	351	351	4	1	4	58	40	37	39	58	3941	53	2	3	47	28	54	53	44.7693540156530644936	30.1808258914125460137	54.611997983844922544	49.241008935198898655
5.0.14.0	win	042419	18:41:33	001	1	game	3	iti	276	1	69	69	0	0	2000	351	4	1	4	53	40	37	39	53	3941	53	2	3	47	28	54	53	44.7693540156530644936	30.1808258914125460137	54.611997983844922544	49.241008935198898655
5.0.14.0	win	042419	18:41:33	001	1	game	3	selection	277	1	70	70	0	slot4	366	366	4	1	4	53	40	37	39	53	3994	53	1	4	47	36	52	53	47.0335023658460755769	34.670721900104688018	55.5862814757879561967	51.5610206514022024749
5.0.14.0	win	042419	18:41:33	001	1	game	3	iti	280	1	70	70	0	0	2000	366	4	1	4	53	40	37	39	53	3994	53	1	4	47	36	52	53	47.0335023658460755769	34.670721900104688018	55.5862814757879561967	51.5610206514022024749
5.0.14.0	win	042419	18:41:33	001	1	game	3	selection	281	1	71	71	0	slot4	125	125	4	1	4	53	40	37	39	53	4039	45	2	3	51	48	63	45	47.5361377029871974287	41.0337732215214785469	60.5684686831648804173	49.3814751493448866881
5.0.14.0	win	042419	18:41:33	001	1	game	3	iti	284	1	71	71	0	0	2000	125	4	1	4	45	40	37	39	45	4039	45	2	3	51	48	63	45	47.5361377029871974287	41.0337732215214785469	60.5684686831648804173	49.3814751493448866881
5.0.14.0	win	042419	18:41:33	001	1	game	3	selection	285	1	72	72	0	slot4	411	411	4	1	4	45	40	37	39	45	4086	47	2	3	43	44	62	47	42.7650341910795290801	41.7691553114655533818	62.4115833906044272794	46.9031735729522054612
5.0.14.0	win	042419	18:41:33	001	1	game	3	iti	288	1	72	72	0	0	2000	411	4	1	4	47	40	37	39	47	4086	47	2	3	43	44	62	47	42.7650341910795290801	41.7691553114655533818	62.4115833906044272794	46.9031735729522054612
5.0.14.0	win	042419	18:41:33	001	1	game	3	selection	289	1	73	73	0	slot3	383	383	3	2	4	47	40	37	39	47	4147	61	1	3	48	42	61	44	42.0588746503262740362	40.151626613255068321	62.8319797637897963227	44.845812659140946721
5.0.14.0	win	042419	18:41:33	001	1	game	3	iti	292	1	73	73	0	0	2000	383	3	2	3	61	40	37	61	47	4147	61	1	3	48	42	61	44	42.0588746503262740362	40.151626613255068321	62.8319797637897963227	44.845812659140946721
5.0.14.0	win	042419	18:41:33	001	1	game	3	selection	293	1	74	74	0	slot3	364	364	3	1	3	61	40	37	61	47	4212	65	1	3	43	47	65	45	45.1761099071058183085	42.5633348711115715446	59.8651032228817641112	45.4897298099538005545
5.0.14.0	win	042419	18:41:33	001	1	game	3	iti	296	1	74	74	0	0	2000	364	3	1	3	65	40	37	65	47	4212	65	1	3	43	47	65	45	45.1761099071058183085	42.5633348711115715446	59.8651032228817641112	45.4897298099538005545
5.0.14.0	win	042419	18:41:33	001	1	game	3	selection	297	1	75	75	0	slot3	618	618	3	1	3	65	40	37	65	47	4279	67	1	3	38	36	67	48	45.5921793570208180313	38.9610233306963564814	59.495765075801266164	50.2110509406039469127
5.0.14.0	win	042419	18:41:33	001	1	game	3	iti	300	1	75	75	0	0	2000	618	3	1	3	67	40	37	67	47	4279	67	1	3	38	36	67	48	45.5921793570208180313	38.9610233306963564814	59.495765075801266164	50.2110509406039469127
5.0.14.0	win	042419	18:41:33	001	1	game	3	selection	301	1	76	76	0	slot1	365	365	1	2	3	67	40	37	67	47	4331	52	2	4	52	37	59	60	46.7503334571013127174	38.5085168026108490835	57.5996024884362327612	56.6656838304265448869
5.0.14.0	win	042419	18:41:33	001	1	game	3	iti	304	1	76	76	0	0	2000	365	1	2	3	67	52	37	67	47	4331	52	2	4	52	37	59	60	46.7503334571013127174	38.5085168026108490835	57.5996024884362327612	56.6656838304265448869
5.0.14.0	win	042419	18:41:33	001	1	game	3	selection	305	1	77	77	0	slot2	371	371	2	2	3	67	52	37	67	47	4375	44	2	3	50	44	58	52	48.1164635211442686114	35.4068565528094865158	57.1060684690857769397	53.2806217357434945825
5.0.14.0	win	042419	18:41:33	001	1	game	3	iti	308	1	77	77	0	0	2000	371	2	2	3	67	52	44	67	47	4375	44	2	3	50	44	58	52	48.1164635211442686114	35.4068565528094865158	57.1060684690857769397	53.2806217357434945825
5.0.14.0	win	042419	18:41:33	001	1	game	3	selection	309	1	78	78	0	slot3	398	398	3	1	3	67	52	44	67	47	4430	55	1	3	47	41	55	52	49.3114616362207556222	36.0701244107461178601	57.4967873385037009371	51.5742092611537259472
5.0.14.0	win	042419	18:41:33	001	1	game	3	iti	312	1	78	78	0	0	2000	398	3	1	3	55	52	44	55	47	4430	55	1	3	47	41	55	52	49.3114616362207556222	36.0701244107461178601	57.4967873385037009371	51.5742092611537259472
5.0.14.0	win	042419	18:41:33	001	1	game	3	selection	313	1	79	79	0	slot3	631	631	3	1	3	55	52	44	55	47	4485	55	1	3	49	32	55	46	46.9134133375572659475	35.2684754206651618347	57.2040383179282088122	48.1967731963744583368
5.0.14.0	win	042419	18:41:33	001	1	game	3	iti	316	1	79	79	0	0	2000	631	3	1	3	55	52	44	55	47	4485	55	1	3	49	32	55	46	46.9134133375572659475	35.2684754206651618347	57.2040383179282088122	48.1967731963744583368
5.0.14.0	win	042419	18:41:33	001	1	game	3	selection	317	1	80	80	0	slot1	733	733	1	2	3	55	52	44	55	47	4537	52	2	3	52	37	62	55	46.8563345805956501522	35.148356438977693017	57.5597037774340307692	50.7902798965531587783
5.0.14.0	win	042419	18:41:33	001	1	game	3	iti	320	1	80	80	0	0	2000	733	1	2	3	55	52	44	55	47	4537	52	2	3	52	37	62	55	46.8563345805956501522	35.148356438977693017	57.5597037774340307692	50.7902798965531587783
5.0.14.0	win	042419	18:41:33	001	1	game	3	selection	321	1	81	81	0	slot2	421	421	2	2	3	55	52	44	55	47	4569	32	2	3	57	32	65	55	51.8204766708501693984	33.3865578577702848406	57.1430622618043315697	52.7990468766029863446
5.0.14.0	win	042419	18:41:33	001	1	game	3	iti	324	1	81	81	0	0	2000	421	2	2	3	55	52	32	55	47	4569	32	2	3	57	32	65	55	51.8204766708501693984	33.3865578577702848406	57.1430622618043315697	52.7990468766029863446
5.0.14.0	win	042419	18:41:33	001	1	game	3	selection	325	1	82	82	0	slot4	374	374	4	2	3	55	52	32	55	47	4620	51	2	3	42	32	65	51	45.4277968850545619262	33.9567793638419956892	57.1502410495290433801	54.8554600250351214186
5.0.14.0	win	042419	18:41:33	001	1	game	3	iti	328	1	82	82	0	0	2000	374	4	2	3	55	52	32	55	51	4620	51	2	3	42	32	65	51	45.4277968850545619262	33.9567793638419956892	57.1502410495290433801	54.8554600250351214186
5.0.14.0	win	042419	18:41:33	001	1	game	3	selection	329	1	83	83	0	slot3	360	360	3	1	3	55	52	32	55	51	4683	63	1	3	44	42	63	53	45.3356361685340587542	34.0398511630852311782	58.3503645356549114354	56.4714363945077195694
5.0.14.0	win	042419	18:41:33	001	1	game	3	iti	332	1	83	83	0	0	2000	360	3	1	3	63	52	32	63	51	4683	63	1	3	44	42	63	53	45.3356361685340587542	34.0398511630852311782	58.3503645356549114354	56.4714363945077195694
5.0.14.0	win	042419	18:41:33	001	1	game	3	selection	333	1	84	84	0	slot3	513	513	3	1	3	63	52	32	63	51	4739	56	2	4	42	33	56	62	42.3827678709411728164	34.6711603522630156249	55.1383648423567578334	59.6142414620983558393
5.0.14.0	win	042419	18:41:33	001	1	game	3	iti	336	1	84	84	0	0	2000	513	3	1	3	56	52	32	56	51	4739	56	2	4	42	33	56	62	42.3827678709411728164	34.6711603522630156249	55.1383648423567578334	59.6142414620983558393
5.0.14.0	win	042419	18:41:33	001	1	game	3	selection	337	1	85	85	0	slot3	533	533	3	1	3	56	52	32	56	51	4795	56	2	4	40	38	56	64	40.714281152497854066	34.5299099992850528906	58.7554380783362759644	62.1277106516755850407
5.0.14.0	win	042419	18:41:33	001	1	game	3	iti	340	1	85	85	0	0	2000	533	3	1	3	56	52	32	56	51	4795	56	2	4	40	38	56	64	40.714281152497854066	34.5299099992850528906	58.7554380783362759644	62.1277106516755850407
5.0.14.0	win	042419	18:41:33	001	1	game	3	selection	341	1	86	86	0	slot3	780	780	3	1	3	56	52	32	56	51	4859	64	2	4	41	51	64	65	42.2513931006123328871	41.8442543957371739793	62.603458892469291186	63.1525747068065328449
5.0.14.0	win	042419	18:41:33	001	1	game	3	iti	344	1	86	86	0	0	2000	780	3	1	3	64	52	32	64	51	4859	64	2	4	41	51	64	65	42.2513931006123328871	41.8442543957371739793	62.603458892469291186	63.1525747068065328449
5.0.14.0	win	042419	18:41:33	001	1	game	3	selection	345	1	87	87	0	slot3	599	599	3	1	3	64	52	32	64	51	4916	57	2	4	39	45	57	59	38.5274345388771877197	41.5875817233434545983	60.9402225186461592443	62.0294197111633707209
5.0.14.0	win	042419	18:41:33	001	1	game	3	iti	348	1	87	87	0	0	2000	599	3	1	3	57	52	32	57	51	4916	57	2	4	39	45	57	59	38.5274345388771877197	41.5875817233434545983	60.9402225186461592443	62.0294197111633707209
5.0.14.0	win	042419	18:41:33	001	1	game	3	selection	349	1	88	88	0	slot1	407	407	1	2	3	57	52	32	57	51	4955	39	2	3	39	43	62	55	35.6430725393343479368	45.367487107424906867	60.4055024381358194319	60.7493648451298469126
5.0.14.0	win	042419	18:41:33	001	1	game	3	iti	352	1	88	88	0	0	2000	407	1	2	3	57	39	32	57	51	4955	39	2	3	39	43	62	55	35.6430725393343479368	45.367487107424906867	60.4055024381358194319	60.7493648451298469126
5.0.14.0	win	042419	18:41:33	001	1	game	3	selection	353	1	89	89	0	slot4	936	936	4	2	3	57	39	32	57	51	5012	57	2	3	32	49	60	57	34.8579957200834726905	42.8087422339091503432	60.1145752064265437298	59.5508780929660943571
5.0.14.0	win	042419	18:41:33	001	1	game	3	iti	356	1	89	89	0	0	2000	936	4	2	3	57	39	32	57	57	5012	57	2	3	32	49	60	57	34.8579957200834726905	42.8087422339091503432	60.1145752064265437298	59.5508780929660943571
5.0.14.0	win	042419	18:41:33	001	1	game	3	selection	357	1	90	90	0	slot2	367	367	2	2	3	57	39	32	57	57	5049	37	2	4	25	37	62	63	32.7300040950832453746	41.4547109842576304573	65.268551131694863443	62.7782050875061798934
5.0.14.0	win	042419	18:41:33	001	1	game	3	iti	360	1	90	90	0	0	2000	367	2	2	3	57	39	37	57	57	5049	37	2	4	25	37	62	63	32.7300040950832453746	41.4547109842576304573	65.268551131694863443	62.7782050875061798934
5.0.14.0	win	042419	18:41:33	001	1	game	3	selection	361	1	91	91	0	slot3	501	501	3	1	3	57	39	37	57	57	5124	75	1	3	35	44	75	62	32.7911156364574054578	40.6729997519549471008	68.852592110049087637	60.2310018125885022755
5.0.14.0	win	042419	18:41:33	001	1	game	3	iti	364	1	91	91	0	0	2000	501	3	1	3	75	39	37	75	57	5124	75	1	3	35	44	75	62	32.7911156364574054578	40.6729997519549471008	68.852592110049087637	60.2310018125885022755
5.0.14.0	win	042419	18:41:33	001	1	game	3	selection	365	1	92	92	0	slot3	410	410	3	1	3	75	39	37	75	57	5191	67	1	3	29	38	67	59	32.3869184756942019021	39.1408615225886933331	67.26338807499243444	60.3509487076089570223
5.0.14.0	win	042419	18:41:33	001	1	game	3	iti	368	1	92	92	0	0	2000	410	3	1	3	67	39	37	67	57	5191	67	1	3	29	38	67	59	32.3869184756942019021	39.1408615225886933331	67.26338807499243444	60.3509487076089570223
5.0.14.0	win	042419	18:41:33	001	1	game	3	selection	369	1	93	93	0	slot3	574	574	3	1	3	67	39	37	67	57	5253	62	1	3	25	39	62	56	33.3845187922160775429	37.283042432857229187	65.7388910636457666214	58.1953931543436198126
5.0.14.0	win	042419	18:41:33	001	1	game	3	iti	372	1	93	93	0	0	2000	574	3	1	3	62	39	37	62	57	5253	62	1	3	25	39	62	56	33.3845187922160775429	37.283042432857229187	65.7388910636457666214	58.1953931543436198126
5.0.14.0	win	042419	18:41:33	001	1	game	3	selection	373	1	94	94	0	slot3	522	522	3	1	3	62	39	37	62	57	5318	65	1	3	34	39	65	53	37.612348875608660137	34.9661911155940785534	65.7448999897703032502	54.2670708586989292144
5.0.14.0	win	042419	18:41:33	001	1	game	3	iti	376	1	94	94	0	0	2000	522	3	1	3	65	39	37	65	57	5318	65	1	3	34	39	65	53	37.612348875608660137	34.9661911155940785534	65.7448999897703032502	54.2670708586989292144
5.0.14.0	win	042419	18:41:33	001	1	game	3	selection	377	1	95	95	0	slot3	430	430	3	1	3	65	39	37	65	57	5385	67	1	3	34	40	67	51	35.8347350766783350196	36.7477271299317109765	63.2741868394591975289	55.0933742995277810905
5.0.14.0	win	042419	18:41:33	001	1	game	3	iti	380	1	95	95	0	0	2000	430	3	1	3	67	39	37	67	57	5385	67	1	3	34	40	67	51	35.8347350766783350196	36.7477271299317109765	63.2741868394591975289	55.0933742995277810905
5.0.14.0	win	042419	18:41:33	001	1	game	3	selection	381	1	96	96	0	slot3	626	626	3	1	3	67	39	37	67	57	5456	71	1	3	28	41	71	52	33.0136441800418509729	39.9293469013291186798	65.0666797725216241588	55.3267201098624994415
5.0.14.0	win	042419	18:41:33	001	1	game	3	iti	384	1	96	96	0	0	2000	626	3	1	3	71	39	37	71	57	5456	71	1	3	28	41	71	52	33.0136441800418509729	39.9293469013291186798	65.0666797725216241588	55.3267201098624994415
5.0.14.0	win	042419	18:41:33	001	1	game	3	selection	385	1	97	97	0	slot3	687	687	3	1	3	71	39	37	71	57	5526	70	1	3	32	44	70	49	35.1420776751717625075	40.373086467481023476	70.2271745897916161994	51.3207778882307508184
5.0.14.0	win	042419	18:41:33	001	1	game	3	iti	388	1	97	97	0	0	2000	687	3	1	3	70	39	37	70	57	5526	70	1	3	32	44	70	49	35.1420776751717625075	40.373086467481023476	70.2271745897916161994	51.3207778882307508184
5.0.14.0	win	042419	18:41:33	001	1	game	3	selection	389	1	98	98	0	slot3	585	585	3	1	3	70	39	37	70	57	5594	68	1	3	31	44	68	57	35.9759897796164125339	42.5919836227387804684	69.4110949829044159287	52.8771728170595665119
5.0.14.0	win	042419	18:41:33	001	1	game	3	iti	392	1	98	98	0	0	2000	585	3	1	3	68	39	37	68	57	5594	68	1	3	31	44	68	57	35.9759897796164125339	42.5919836227387804684	69.4110949829044159287	52.8771728170595665119
5.0.14.0	win	042419	18:41:33	001	1	game	3	selection	393	1	99	99	0	slot3	595	595	3	1	3	68	39	37	68	57	5661	67	1	3	39	52	67	43	36.946390893653187959	47.1318890910547025896	68.3598738532519405453	51.4065681248822343719
5.0.14.0	win	042419	18:41:33	001	1	game	3	iti	396	1	99	99	0	0	2000	595	3	1	3	67	39	37	67	57	5661	67	1	3	39	52	67	43	36.946390893653187959	47.1318890910547025896	68.3598738532519405453	51.4065681248822343719
5.0.14.0	win	042419	18:41:33	001	1	game	3	selection	397	1	100	100	0	slot3	677	677	3	1	3	67	39	37	67	57	5732	71	1	3	37	59	71	50	34.831554459279225	53.1769761882267388842	71.8531345602310409504	50.5328789953555457259
5.0.14.0	win	042419	18:41:33	001	1	game	3	iti	400	1	100	100	0	0	2000	677	3	1	3	71	39	37	71	57	5732	71	1	3	37	59	71	50	34.831554459279225	53.1769761882267388842	71.8531345602310409504	50.5328789953555457259
5.0.14.0	win	042419	18:41:33	001	1	game	3	selection	401	1	101	101	0	slot3	414	414	3	1	3	71	39	37	71	57	5800	68	1	3	40	59	68	50	36.6168515131223699655	54.3283540446199921803	72.4385870261768332057	49.1290200300438115733
5.0.14.0	win	042419	18:41:33	001	1	game	3	iti	404	1	101	101	0	0	2000	414	3	1	3	68	39	37	68	57	5800	68	1	3	40	59	68	50	36.6168515131223699655	54.3283540446199921803	72.4385870261768332057	49.1290200300438115733
5.0.14.0	win	042419	18:41:33	001	1	game	3	selection	405	1	102	102	0	slot3	665	665	3	1	3	68	39	37	68	57	5867	67	1	3	37	52	67	57	40.332506863655950724	52.1460023022847707352	71.7634621146412285952	50.621856939641105555
5.0.14.0	win	042419	18:41:33	001	1	game	3	iti	408	1	102	102	0	0	2000	665	3	1	3	67	39	37	67	57	5867	67	1	3	37	52	67	57	40.332506863655950724	52.1460023022847707352	71.7634621146412285952	50.621856939641105555
5.0.14.0	win	042419	18:41:33	001	1	game	3	selection	409	1	103	103	0	slot2	341	341	2	2	3	67	39	37	67	57	5917	50	2	3	44	50	78	57	40.3114910277937568139	52.5377187484078902457	73.9136087465494284743	53.9310189344902966013
5.0.14.0	win	042419	18:41:33	001	1	game	3	iti	412	1	103	103	0	0	2000	341	2	2	3	67	39	50	67	57	5917	50	2	3	44	50	78	57	40.3114910277937568139	52.5377187484078902457	73.9136087465494284743	53.9310189344902966013
5.0.14.0	win	042419	18:41:33	001	1	game	3	selection	413	1	104	104	0	slot1	371	371	1	2	3	67	39	50	67	57	5962	45	2	3	45	53	66	46	42.9512333827499901417	53.5969723403734263911	73.3024103398122832687	53.9788742301175830107
5.0.14.0	win	042419	18:41:33	001	1	game	3	iti	416	1	104	104	0	0	2000	371	1	2	3	67	45	50	67	57	5962	45	2	3	45	53	66	46	42.9512333827499901417	53.5969723403734263911	73.3024103398122832687	53.9788742301175830107
5.0.14.0	win	042419	18:41:33	001	1	game	3	selection	417	1	105	105	0	slot4	432	432	4	2	3	67	45	50	67	57	6017	55	2	3	53	52	68	55	44.6222035881984311345	56.0930624757395719371	68.2834438231338793912	54.5973462131661761987
5.0.14.0	win	042419	18:41:33	001	1	game	3	iti	420	1	105	105	0	0	2000	432	4	2	3	67	45	50	67	55	6017	55	2	3	53	52	68	55	44.6222035881984311345	56.0930624757395719371	68.2834438231338793912	54.5973462131661761987
5.0.14.0	win	042419	18:41:33	001	1	game	3	selection	421	1	106	106	0	slot2	448	448	2	2	3	67	45	50	67	55	6071	54	2	3	42	54	63	51	42.8910585306863865185	53.7237910167557686236	66.7458569462701802877	52.8806237003435413158
5.0.14.0	win	042419	18:41:33	001	1	game	3	iti	424	1	106	106	0	0	2000	448	2	2	3	67	45	54	67	55	6071	54	2	3	42	54	63	51	42.8910585306863865185	53.7237910167557686236	66.7458569462701802877	52.8806237003435413158
5.0.14.0	win	042419	18:41:33	001	1	game	3	selection	425	1	107	107	0	slot3	399	399	3	1	3	67	45	54	67	55	6136	65	1	3	41	51	65	53	39.6062418275141396862	54.4546906099643379662	63.2808096595388676064	52.1339794992524261374
5.0.14.0	win	042419	18:41:33	001	1	game	3	iti	428	1	107	107	0	0	2000	399	3	1	3	65	45	54	65	55	6136	65	1	3	41	51	65	53	39.6062418275141396862	54.4546906099643379662	63.2808096595388676064	52.1339794992524261374
5.0.14.0	win	042419	18:41:33	001	1	game	3	selection	429	1	108	108	0	slot3	889	889	3	1	3	65	45	54	65	55	6201	65	1	3	52	56	65	59	45.7614323495940027442	56.7700095533367843359	62.6788968570403710601	54.5553948105904780164
5.0.14.0	win	042419	18:41:33	001	1	game	3	iti	432	1	108	108	0	0	2000	889	3	1	3	65	45	54	65	55	6201	65	1	3	52	56	65	59	45.7614323495940027442	56.7700095533367843359	62.6788968570403710601	54.5553948105904780164
5.0.14.0	win	042419	18:41:33	001	1	game	3	selection	433	1	109	109	0	slot3	408	408	3	1	3	65	45	54	65	55	6265	64	2	4	49	57	64	65	49.2358383116760052189	56.3532484267887028295	66.160060441678439247	55.3054783546861088439
5.0.14.0	win	042419	18:41:33	001	1	game	3	iti	436	1	109	109	0	0	2000	408	3	1	3	64	45	54	64	55	6265	64	2	4	49	57	64	65	49.2358383116760052189	56.3532484267887028295	66.160060441678439247	55.3054783546861088439
5.0.14.0	win	042419	18:41:33	001	1	game	3	selection	437	1	110	110	0	slot3	494	494	3	1	3	64	45	54	64	55	6329	64	1	3	49	50	64	55	46.6331892436819259729	55.20642271129298706	67.8554447872229218319	54.0120698346556267211
5.0.14.0	win	042419	18:41:33	001	1	game	3	iti	440	1	110	110	0	0	2000	494	3	1	3	64	45	54	64	55	6329	64	1	3	49	50	64	55	46.6331892436819259729	55.20642271129298706	67.8554447872229218319	54.0120698346556267211
5.0.14.0	win	042419	18:41:33	001	1	game	3	selection	441	1	111	111	0	slot3	418	418	3	1	3	64	45	54	64	55	6391	62	1	3	48	56	62	60	45.3615494033090769221	58.1435463847722360242	66.2520299966577397299	55.5353399054844132365
5.0.14.0	win	042419	18:41:33	001	1	game	3	iti	444	1	111	111	0	0	2000	418	3	1	3	62	45	54	62	55	6391	62	1	3	48	56	62	60	45.3615494033090769221	58.1435463847722360242	66.2520299966577397299	55.5353399054844132365
5.0.14.0	win	042419	18:41:33	001	1	game	3	selection	445	1	112	112	0	slot3	519	519	3	1	3	62	45	54	62	55	6460	69	1	3	41	64	69	57	43.925422236461997727	58.9507190982747033559	65.8944360179001051847	59.51445465589546302
5.0.14.0	win	042419	18:41:33	001	1	game	3	iti	448	1	112	112	0	0	2000	519	3	1	3	69	45	54	69	55	6460	69	1	3	41	64	69	57	43.925422236461997727	58.9507190982747033559	65.8944360179001051847	59.51445465589546302
5.0.14.0	win	042419	18:41:33	001	1	game	3	selection	449	1	113	113	0	slot3	512	512	3	1	3	69	45	54	69	55	6525	65	2	4	48	55	65	67	44.7289982229456626328	60.5372671616664419503	67.5637287577923046911	62.3526469606597899542
5.0.14.0	win	042419	18:41:33	001	1	game	3	iti	452	1	113	113	0	0	2000	512	3	1	3	65	45	54	65	55	6525	65	2	4	48	55	65	67	44.7289982229456626328	60.5372671616664419503	67.5637287577923046911	62.3526469606597899542
5.0.14.0	win	042419	18:41:33	001	1	game	3	selection	453	1	114	114	0	slot3	422	422	3	1	3	65	45	54	65	55	6589	64	2	4	50	63	64	65	44.5115315384671461629	61.4330192966426906764	67.0681679793027143432	67.1065156715739163928
5.0.14.0	win	042419	18:41:33	001	1	game	3	iti	456	1	114	114	0	0	2000	422	3	1	3	64	45	54	64	55	6589	64	2	4	50	63	64	65	44.5115315384671461629	61.4330192966426906764	67.0681679793027143432	67.1065156715739163928
5.0.14.0	win	042419	18:41:33	001	1	game	3	selection	457	1	115	115	0	slot3	552	552	3	1	3	64	45	54	64	55	6660	71	2	4	51	57	71	72	48.0988647735455359111	60.1923800568853977211	71.0954715589687111787	62.9441296557216105612
5.0.14.0	win	042419	18:41:33	001	1	game	3	iti	460	1	115	115	0	0	2000	552	3	1	3	71	45	54	71	55	6660	71	2	4	51	57	71	72	48.0988647735455359111	60.1923800568853977211	71.0954715589687111787	62.9441296557216105612
5.0.14.0	win	042419	18:41:33	001	1	game	3	selection	461	1	116	116	0	slot3	675	675	3	1	3	71	45	54	71	55	6728	68	1	3	50	59	68	60	48.6016235485576544306	56.9792011025524303136	67.9102747062972440517	61.5678076299305487851
5.0.14.0	win	042419	18:41:33	001	1	game	3	iti	464	1	116	116	0	0	2000	675	3	1	3	68	45	54	68	55	6728	68	1	3	50	59	68	60	48.6016235485576544306	56.9792011025524303136	67.9102747062972440517	61.5678076299305487851
5.0.14.0	win	042419	18:41:33	001	1	game	3	selection	465	1	117	117	0	slot3	420	420	3	1	3	68	45	54	68	55	6795	67	1	3	48	62	67	61	52.1402672613444906347	58.4921136632066946959	68.319123400099769583	59.0346111428191377968
5.0.14.0	win	042419	18:41:33	001	1	game	3	iti	468	1	117	117	0	0	2000	420	3	1	3	67	45	54	67	55	6795	67	1	3	48	62	67	61	52.1402672613444906347	58.4921136632066946959	68.319123400099769583	59.0346111428191377968
5.0.14.0	win	042419	18:41:33	001	1	game	3	selection	469	1	118	118	0	slot3	519	519	3	1	3	67	45	54	67	55	6851	56	2	4	54	57	56	61	56.7608774725873814759	58.7014833935366340256	64.9882224227705336261	59.8194989934586303093
5.0.14.0	win	042419	18:41:33	001	1	game	3	iti	472	1	118	118	0	0	2000	519	3	1	3	56	45	54	56	55	6851	56	2	4	54	57	56	61	56.7608774725873814759	58.7014833935366340256	64.9882224227705336261	59.8194989934586303093
5.0.14.0	win	042419	18:41:33	001	1	game	3	selection	473	1	119	119	0	slot3	557	557	3	1	3	56	45	54	56	55	6903	52	2	2	51	64	52	48	58.0004577617528340738	58.054911817419650788	58.8127304161331778687	59.698504355822187506
5.0.14.0	win	042419	18:41:33	001	1	game	3	iti	476	1	119	119	0	0	2000	557	3	1	4	55	45	54	52	55	6903	52	2	2	51	64	52	48	58.0004577617528340738	58.054911817419650788	58.8127304161331778687	59.698504355822187506
5.0.14.0	win	042419	18:41:33	001	1	game	3	selection	477	1	120	120	0	slot3	547	547	3	2	4	55	45	54	52	55	6960	57	2	4	56	59	57	61	57.1688633842609732483	53.4057870924876212371	55.0956758235262142875	60.1354983404488550036
5.0.14.0	win	042419	18:41:33	001	1	game	3	iti	480	1	120	120	0	0	2000	547	3	2	3	57	45	54	57	55	6960	57	2	4	56	59	57	61	57.1688633842609732483	53.4057870924876212371	55.0956758235262142875	60.1354983404488550036
5.0.14.0	win	042419	18:41:33	001	1	game	3	selection	481	1	121	121	0	slot3	401	401	3	1	3	57	45	54	57	55	7014	54	2	4	53	50	54	59	54.6948147865218032848	54.707381502740865642	53.6909442611564386993	61.27796322354650016
5.0.14.0	win	042419	18:41:33	001	1	game	3	iti	484	1	121	121	0	0	2000	401	3	1	4	55	45	54	54	55	7014	54	2	4	53	50	54	59	54.6948147865218032848	54.707381502740865642	53.6909442611564386993	61.27796322354650016
5.0.14.0	win	042419	18:41:33	001	1	game	3	selection	485	1	122	122	0	slot3	558	558	3	2	4	55	45	54	54	55	7075	61	1	3	60	37	61	58	53.9686417657068560061	51.2051319879503594734	56.8609432926793871843	62.3175261739209531697
5.0.14.0	win	042419	18:41:33	001	1	game	3	iti	488	1	122	122	0	0	2000	558	3	2	3	61	45	54	61	55	7075	61	1	3	60	37	61	58	53.9686417657068560061	51.2051319879503594734	56.8609432926793871843	62.3175261739209531697
5.0.14.0	win	042419	18:41:33	001	1	game	3	selection	489	1	123	123	0	slot3	624	624	3	1	3	61	45	54	61	55	7134	59	2	4	58	43	59	68	53.5376062748206180686	45.9727566828763229978	60.4162968364514441078	61.7088846351288822234
5.0.14.0	win	042419	18:41:33	001	1	game	3	iti	492	1	123	123	0	0	2000	624	3	1	3	59	45	54	59	55	7134	59	2	4	58	43	59	68	53.5376062748206180686	45.9727566828763229978	60.4162968364514441078	61.7088846351288822234
5.0.14.0	win	042419	18:41:33	001	1	game	3	selection	493	1	124	124	0	slot3	558	558	3	1	3	59	45	54	59	55	7201	67	2	4	63	47	67	69	57.6783772659998206223	48.3015424139208704446	63.5534070081915416495	59.933171001606943662
5.0.14.0	win	042419	18:41:33	001	1	game	3	iti	496	1	124	124	0	0	2000	558	3	1	3	67	45	54	67	55	7201	67	2	4	63	47	67	69	57.6783772659998206223	48.3015424139208704446	63.5534070081915416495	59.933171001606943662
5.0.14.0	win	042419	18:41:33	001	1	game	3	selection	497	1	125	125	0	slot3	407	407	3	1	3	67	45	54	67	55	7271	70	1	3	63	48	70	57	60.3074030240585514662	49.5076575587705676185	63.158520329306938379	62.365373398021077378
5.0.14.0	win	042419	18:41:33	001	1	game	3	iti	500	1	125	125	0	0	2000	407	3	1	3	70	45	54	70	55	7271	70	1	3	63	48	70	57	60.3074030240585514662	49.5076575587705676185	63.158520329306938379	62.365373398021077378
5.0.14.0	win	042419	18:41:33	001	1	game	3	selection	501	1	126	126	0	slot3	440	440	3	1	3	70	45	54	70	55	7338	67	2	1	70	47	67	62	63.7229108041473892854	48.3380604134702522856	63.7015790894788622722	61.91344803697333532
5.0.14.0	win	042419	18:41:33	001	1	game	3	iti	504	1	126	126	0	0	2000	440	3	1	3	67	45	54	67	55	7338	67	2	1	70	47	67	62	63.7229108041473892854	48.3380604134702522856	63.7015790894788622722	61.91344803697333532
5.0.14.0	win	042419	18:41:33	001	1	game	3	selection	505	1	127	127	0	slot3	367	367	3	1	3	67	45	54	67	55	7411	73	1	3	64	46	73	70	62.8930313443833739484	44.2583201635973324528	70.2324652077711135689	66.6880269227188193781
5.0.14.0	win	042419	18:41:33	001	1	game	3	iti	508	1	127	127	0	0	2000	367	3	1	3	73	45	54	73	55	7411	73	1	3	64	46	73	70	62.8930313443833739484	44.2583201635973324528	70.2324652077711135689	66.6880269227188193781
5.0.14.0	win	042419	18:41:33	001	1	game	3	selection	509	1	128	128	0	slot3	781	781	3	1	3	73	45	54	73	55	7485	74	1	3	58	42	74	61	58.4562780037543205935	44.7660302044812254962	70.3604804146776388052	63.7803503620364864446
5.0.14.0	win	042419	18:41:33	001	1	game	3	iti	512	1	128	128	0	0	2000	781	3	1	3	74	45	54	74	55	7485	74	1	3	58	42	74	61	58.4562780037543205935	44.7660302044812254962	70.3604804146776388052	63.7803503620364864446
5.0.14.0	win	042419	18:41:33	001	1	game	3	selection	513	1	129	129	0	slot3	420	420	3	1	3	74	45	54	74	55	7558	73	1	3	54	43	73	63	57.3967035878352831446	45.1162050691475755571	68.4177444585894960483	64.4923918102116573436
5.0.14.0	win	042419	18:41:33	001	1	game	3	iti	516	1	129	129	0	0	2000	420	3	1	3	73	45	54	73	55	7558	73	1	3	54	43	73	63	57.3967035878352831446	45.1162050691475755571	68.4177444585894960483	64.4923918102116573436
5.0.14.0	win	042419	18:41:33	001	1	game	3	selection	517	1	130	130	0	slot3	432	432	3	1	3	73	45	54	73	55	7626	68	1	3	56	50	68	55	55.4934731624595372068	45.926553765531316742	69.2747351098011563408	63.1920989945020039613
5.0.14.0	win	042419	18:41:33	001	1	game	3	iti	520	1	130	130	0	0	2000	432	3	1	3	68	45	54	68	55	7626	68	1	3	56	50	68	55	55.4934731624595372068	45.926553765531316742	69.2747351098011563408	63.1920989945020039613
5.0.14.0	win	042419	18:41:33	001	1	game	3	selection	521	1	131	131	0	slot3	449	449	3	1	3	68	45	54	68	55	7690	64	1	3	59	46	64	61	56.562030129987810767	48.6549661258295742527	69.4670809819729839774	63.1985676012556183423
5.0.14.0	win	042419	18:41:33	001	1	game	3	iti	524	1	131	131	0	0	2000	449	3	1	3	64	45	54	64	55	7690	64	1	3	59	46	64	61	56.562030129987810767	48.6549661258295742527	69.4670809819729839774	63.1985676012556183423
5.0.14.0	win	042419	18:41:33	001	1	game	3	selection	525	1	132	132	0	slot3	513	513	3	1	3	64	45	54	64	55	7761	71	1	3	44	50	71	58	50.0812679019069975084	46.900563743540757855	69.280010272935257376	61.3886864863119043889
5.0.14.0	win	042419	18:41:33	001	1	game	3	iti	528	1	132	132	0	0	2000	513	3	1	3	71	45	54	71	55	7761	71	1	3	44	50	71	58	50.0812679019069975084	46.900563743540757855	69.280010272935257376	61.3886864863119043889
5.0.14.0	win	042419	18:41:33	001	1	game	3	selection	529	1	133	133	0	slot3	1267	1267	3	1	3	71	45	54	71	55	7831	70	1	3	44	47	70	66	44.1728944978601418825	47.8493977735950863917	68.9812708315005522763	61.5072335992162493312
5.0.14.0	win	042419	18:41:33	001	1	game	3	iti	532	1	133	133	0	0	2000	1267	3	1	3	70	45	54	70	55	7831	70	1	3	44	47	70	66	44.1728944978601418825	47.8493977735950863917	68.9812708315005522763	61.5072335992162493312
5.0.14.0	win	042419	18:41:33	001	1	game	3	selection	533	1	134	134	0	slot3	569	569	3	1	3	70	45	54	70	55	7894	63	1	3	45	48	63	60	42.836741279172279917	46.5315843024807946904	65.6469652602818456444	60.7749797299819789487
5.0.14.0	win	042419	18:41:33	001	1	game	3	iti	536	1	134	134	0	0	2000	569	3	1	3	63	45	54	63	55	7894	63	1	3	45	48	63	60	42.836741279172279917	46.5315843024807946904	65.6469652602818456444	60.7749797299819789487
5.0.14.0	win	042419	18:41:33	001	1	game	3	selection	537	1	135	135	0	slot2	371	371	2	2	3	63	45	54	63	55	7935	41	2	4	46	41	63	67	43.2759373741163528848	42.9278819194532559322	68.3021780013361308193	61.2425349069812696712
5.0.14.0	win	042419	18:41:33	001	1	game	3	iti	540	1	135	135	0	0	2000	371	2	2	3	63	45	41	63	55	7935	41	2	4	46	41	63	67	43.2759373741163528848	42.9278819194532559322	68.3021780013361308193	61.2425349069812696712
5.0.14.0	win	042419	18:41:33	001	1	game	3	selection	541	1	136	136	0	slot1	366	366	1	2	3	63	45	41	63	55	7982	47	2	3	47	44	67	66	46.7519535704940736309	44.6678291219603522677	68.5243042353244078413	68.8500885617980316056
5.0.14.0	win	042419	18:41:33	001	1	game	3	iti	544	1	136	136	0	0	2000	366	1	2	3	63	47	41	63	55	7982	47	2	3	47	44	67	66	46.7519535704940736309	44.6678291219603522677	68.5243042353244078413	68.8500885617980316056
5.0.14.0	win	042419	18:41:33	001	1	game	3	selection	545	1	137	137	0	slot4	406	406	4	2	3	63	47	41	63	55	8052	70	1	4	39	46	67	70	41.6268493060526054705	44.1521264480177180189	62.0857326466444945368	67.8636723485014243806
5.0.14.0	win	042419	18:41:33	001	1	game	3	iti	548	1	137	137	0	0	2000	406	4	2	4	70	47	41	63	70	8052	70	1	4	39	46	67	70	41.6268493060526054705	44.1521264480177180189	62.0857326466444945368	67.8636723485014243806
5.0.14.0	win	042419	18:41:33	001	1	game	3	selection	549	1	138	138	0	slot4	386	386	4	1	4	70	47	41	63	70	8115	63	2	3	42	45	65	63	41.322498196482449373	50.2816356461469524675	60.2850062894863825136	69.3955973640288874549
5.0.14.0	win	042419	18:41:33	001	1	game	3	iti	552	1	138	138	0	0	2000	386	4	1	3	63	47	41	63	63	8115	63	2	3	42	45	65	63	41.322498196482449373	50.2816356461469524675	60.2850062894863825136	69.3955973640288874549
5.0.14.0	win	042419	18:41:33	001	1	game	3	selection	553	1	139	139	0	slot3	423	423	3	1	3	63	47	41	63	63	8176	61	2	4	45	50	61	66	42.4887587607527876798	47.7644225878670880547	61.7278358190358886759	65.4151426014395838138
5.0.14.0	win	042419	18:41:33	001	1	game	3	iti	556	1	139	139	0	0	2000	423	3	1	4	63	47	41	61	63	8176	61	2	4	45	50	61	66	42.4887587607527876798	47.7644225878670880547	61.7278358190358886759	65.4151426014395838138
5.0.14.0	win	042419	18:41:33	001	1	game	3	selection	557	1	140	140	0	slot4	136	136	4	1	4	63	47	41	61	63	8241	65	1	4	47	44	61	65	47.8453953473320368062	45.8204983246955066534	59.9671530479730776619	61.3119253584511909594
5.0.14.0	win	042419	18:41:33	001	1	game	3	iti	560	1	140	140	0	0	2000	136	4	1	4	65	47	41	61	65	8241	65	1	4	47	44	61	65	47.8453953473320368062	45.8204983246955066534	59.9671530479730776619	61.3119253584511909594
5.0.14.0	win	042419	18:41:33	001	1	game	3	selection	561	1	141	141	0	slot4	381	381	4	1	4	65	47	41	61	65	8293	52	2	3	44	51	57	52	43.2870795856039407568	51.5162998118757116117	57.9563061454595782607	57.2471843421747479397
5.0.14.0	win	042419	18:41:33	001	1	game	3	iti	564	1	141	141	0	0	2000	381	4	1	3	61	47	41	61	52	8293	52	2	3	44	51	57	52	43.2870795856039407568	51.5162998118757116117	57.9563061454595782607	57.2471843421747479397
5.0.14.0	win	042419	18:41:33	001	1	game	3	selection	565	1	142	142	0	slot3	390	390	3	1	3	61	47	41	61	52	8357	64	1	3	40	54	64	55	44.0779032871975147145	56.6545581727434495178	57.7717729606814032195	57.2921108864944770289
5.0.14.0	win	042419	18:41:33	001	1	game	3	iti	568	1	142	142	0	0	2000	390	3	1	3	64	47	41	64	52	8357	64	1	3	40	54	64	55	44.0779032871975147145	56.6545581727434495178	57.7717729606814032195	57.2921108864944770289
5.0.14.0	win	042419	18:41:33	001	1	game	3	selection	569	1	143	143	0	slot3	389	389	3	1	3	64	47	41	64	52	8414	57	2	4	44	55	57	61	43.0828912089851172595	58.1642917013945606186	55.3111895957341630492	54.3060123908191130226
5.0.14.0	win	042419	18:41:33	001	1	game	3	iti	572	1	143	143	0	0	2000	389	3	1	3	57	47	41	57	52	8414	57	2	4	44	55	57	61	43.0828912089851172595	58.1642917013945606186	55.3111895957341630492	54.3060123908191130226
5.0.14.0	win	042419	18:41:33	001	1	game	3	selection	573	1	144	144	0	slot4	402	402	4	2	3	57	47	41	57	52	8464	50	2	3	43	52	62	50	46.4540007971976365297	57.2903399633134498004	55.9857198195048653133	55.454214324742935105
5.0.14.0	win	042419	18:41:33	001	1	game	3	iti	576	1	144	144	0	0	2000	402	4	2	3	57	47	41	57	50	8464	50	2	3	43	52	62	50	46.4540007971976365297	57.2903399633134498004	55.9857198195048653133	55.454214324742935105
5.0.14.0	win	042419	18:41:33	001	1	game	3	selection	577	1	145	145	0	slot3	367	367	3	1	3	57	47	41	57	50	8527	63	2	4	39	58	63	64	47.1485332889336277162	61.069605711055338304	57.4644456918794048761	57.8945866071949666321
5.0.14.0	win	042419	18:41:33	001	1	game	3	iti	580	1	145	145	0	0	2000	367	3	1	3	63	47	41	63	50	8527	63	2	4	39	58	63	64	47.1485332889336277162	61.069605711055338304	57.4644456918794048761	57.8945866071949666321
5.0.14.0	win	042419	18:41:33	001	1	game	3	selection	581	1	146	146	0	slot4	420	420	4	2	3	63	47	41	63	50	8583	56	2	2	45	66	55	56	45.7137902144607082278	63.1680774257740367261	57.7328666134383254871	55.9436018809020012554
5.0.14.0	win	042419	18:41:33	001	1	game	3	iti	584	1	146	146	0	0	2000	420	4	2	3	63	47	41	63	56	8583	56	2	2	45	66	55	56	45.7137902144607082278	63.1680774257740367261	57.7328666134383254871	55.9436018809020012554
5.0.14.0	win	042419	18:41:33	001	1	game	3	selection	585	1	147	147	0	slot2	423	423	2	2	3	63	47	41	63	56	8650	67	1	2	53	67	58	56	45.4178771915560162142	64.3553723419391587868	55.1824779281532755704	57.9279206623872227055
5.0.14.0	win	042419	18:41:33	001	1	game	3	iti	588	1	147	147	0	0	2000	423	2	2	2	67	47	67	63	56	8650	67	1	2	53	67	58	56	45.4178771915560162142	64.3553723419391587868	55.1824779281532755704	57.9279206623872227055
5.0.14.0	win	042419	18:41:33	001	1	game	3	selection	589	1	148	148	0	slot3	364	364	3	2	2	67	47	67	63	56	8711	61	1	3	41	59	61	53	46.5379410562133344342	63.9270307219423372658	56.1646353284368018421	56.0709875033185483062
5.0.14.0	win	042419	18:41:33	001	1	game	3	iti	592	1	148	148	0	0	2000	364	3	2	2	67	47	67	61	56	8711	61	1	3	41	59	61	53	46.5379410562133344342	63.9270307219423372658	56.1646353284368018421	56.0709875033185483062
5.0.14.0	win	042419	18:41:33	001	1	game	3	selection	593	1	149	149	0	slot1	321	321	1	2	2	67	47	67	61	56	8757	46	2	2	46	72	45	61	46.87773869193468812	66.5870643764608303172	51.2996883426074674617	55.6691615773899357578
5.0.14.0	win	042419	18:41:33	001	1	game	3	iti	596	1	149	149	0	0	2000	321	1	2	2	67	46	67	61	56	8757	46	2	2	46	72	45	61	46.87773869193468812	66.5870643764608303172	51.2996883426074674617	55.6691615773899357578
5.0.14.0	win	042419	18:41:33	001	1	game	3	selection	597	1	150	150	0	slot4	394	394	4	2	2	67	46	67	61	56	8811	54	2	2	49	60	44	54	43.4738066330676957705	65.4326717371830994807	47.1081541284765634714	55.2327243366343907383
5.0.14.0	win	042419	18:41:33	001	1	game	3	iti	600	1	150	150	0	0	2000	394	4	2	2	67	46	67	61	54	8811	54	2	2	49	60	44	54	43.4738066330676957705	65.4326717371830994807	47.1081541284765634714	55.2327243366343907383
5.0.14.0	win	042419	18:41:33	001	1	game	5	selection	1	2	151	1	1	0	1500	1500	0	0	2	67	46	67	61	54	8811	0	0	2	49	65	45	56	47.0265353623234503289	62.3332328711416749911	45.2188814172997837204	56.8332288195472514758
5.0.14.0	win	042419	18:41:33	001	1	game	5	iti	3	2	151	1	1	Ctrl+'Q'	1342	1500	0	0	2	67	46	67	61	54	8811	0	0	2	49	65	45	56	47.0265353623234503289	62.3332328711416749911	45.2188814172997837204	56.8332288195472514758
