build	computer.platform	date	time	subject	group	blockcode	blocknum	trialcode	trialnum	values.countRounds	values.TotaltrialCount	values.trialCount_perRound	values.noResponseCount	response	latency	values.selectionRT	values.selectedSlot	values.choice	values.currenthighestSeenPayOffSlot	values.currenthighestSeenPayOff	values.lastSeenPayOff1	values.lastSeenPayOff2	values.lastSeenPayOff3	values.lastSeenPayOff4	values.total	values.currentPayoff	values.highestPayOffSelected	values.currentHighestPayOffSlot	values.payOff1	values.payOff2	values.payOff3	values.payOff4	values.mean1	values.mean2	values.mean3	values.mean4
5.0.14.0	win	042419	19:06:53	001	1	demo	1	selection	2	0	1	1	0	slot3	825	825	3	2	0	0	0	0	0	0	-27	-27	2	2	-32	-15	-27	-42	-31.2646822795759469216	-10.5754212214295986172	-25.4006804515322563987	-37.8569616410518463567
5.0.14.0	win	042419	19:06:53	001	1	demo	1	iti	5	0	1	1	0	0	2000	825	3	2	1	0	0	0	-27	0	-27	-27	2	2	-32	-15	-27	-42	-31.2646822795759469216	-10.5754212214295986172	-25.4006804515322563987	-37.8569616410518463567
5.0.14.0	win	042419	19:06:53	001	1	demo	1	selection	6	0	2	2	0	slot2	362	362	2	2	1	0	0	0	-27	0	-38	-11	1	2	-37	-11	-16	-28	-36.0914594208290324673	-12.6267012192830385686	-23.366062070387613403	-36.689294327491296599
5.0.14.0	win	042419	19:06:53	001	1	demo	1	iti	9	0	2	2	0	0	2000	362	2	2	1	0	0	-11	-27	0	-38	-11	1	2	-37	-11	-16	-28	-36.0914594208290324673	-12.6267012192830385686	-23.366062070387613403	-36.689294327491296599
5.0.14.0	win	042419	19:06:53	001	1	demo	1	selection	10	0	3	3	0	slot1	385	385	1	1	1	0	0	-11	-27	0	-82	-44	2	2	-44	-9	-27	-39	-39.1897324507333237875	-10.3968934791391198758	-21.3476742568257691346	-39.9986603989900473266
5.0.14.0	win	042419	19:06:53	001	1	demo	1	iti	13	0	3	3	0	0	2000	385	1	1	4	0	-44	-11	-27	0	-82	-44	2	2	-44	-9	-27	-39	-39.1897324507333237875	-10.3968934791391198758	-21.3476742568257691346	-39.9986603989900473266
5.0.14.0	win	042419	19:06:53	001	1	demo	1	selection	14	0	4	4	0	slot4	140	140	4	1	4	0	-44	-11	-27	0	-124	-42	2	2	-36	-14	-19	-42	-35.3931418069352261568	-8.089234769838657968	-19.0517933374782906242	-41.1002188393925109722
5.0.14.0	win	042419	19:06:53	001	1	demo	1	iti	17	0	4	4	0	0	2000	140	4	1	2	-11	-44	-11	-27	-42	-124	-42	2	2	-36	-14	-19	-42	-35.3931418069352261568	-8.089234769838657968	-19.0517933374782906242	-41.1002188393925109722
5.0.14.0	win	042419	19:06:53	001	1	demo	1	selection	18	0	5	5	0	slot1	524	524	1	2	2	-11	-44	-11	-27	-42	-163	-39	2	2	-39	-14	-19	-45	-37.1226247794501773569	-11.3610837337129773061	-15.5408142720893991395	-41.4493072786045004818
5.0.14.0	win	042419	19:06:53	001	1	demo	1	iti	21	0	5	5	0	0	2000	524	1	2	2	-11	-39	-11	-27	-42	-163	-39	2	2	-39	-14	-19	-45	-37.1226247794501773569	-11.3610837337129773061	-15.5408142720893991395	-41.4493072786045004818
5.0.14.0	win	042419	19:06:53	001	1	game	3	selection	1	1	1	1	0	slot1	1198	1198	1	2	0	0	0	0	0	0	-58	-58	2	4	-58	-40	-84	-24	-57.7747573283092705765	-38.3429956369840567731	-81.617444397498573494	-19.5783375433073274507
5.0.14.0	win	042419	19:06:53	001	1	game	3	iti	4	1	1	1	0	0	2000	1198	1	2	2	0	-58	0	0	0	-58	-58	2	4	-58	-40	-84	-24	-57.7747573283092705765	-38.3429956369840567731	-81.617444397498573494	-19.5783375433073274507
5.0.14.0	win	042419	19:06:53	001	1	game	3	selection	5	1	2	2	0	slot4	591	591	4	2	2	0	-58	0	0	0	-69	-11	1	4	-65	-38	-79	-11	-58.6575565220135430877	-38.2911247635328422234	-82.5353157597895688014	-21.1932370726477223855
5.0.14.0	win	042419	19:06:53	001	1	game	3	iti	8	1	2	2	0	0	2000	591	4	2	2	0	-58	0	0	-11	-69	-11	1	4	-65	-38	-79	-11	-58.6575565220135430877	-38.2911247635328422234	-82.5353157597895688014	-21.1932370726477223855
5.0.14.0	win	042419	19:06:53	001	1	game	3	selection	9	1	3	3	0	slot3	388	388	3	2	2	0	-58	0	0	-11	-150	-81	2	4	-61	-35	-81	-25	-56.4572694068635883013	-36.004023986616417119	-78.2773461052213548328	-22.9421215505251474553
5.0.14.0	win	042419	19:06:53	001	1	game	3	iti	12	1	3	3	0	0	2000	388	3	2	2	0	-58	0	-81	-11	-150	-81	2	4	-61	-35	-81	-25	-56.4572694068635883013	-36.004023986616417119	-78.2773461052213548328	-22.9421215505251474553
5.0.14.0	win	042419	19:06:53	001	1	game	3	selection	13	1	4	4	0	slot2	349	349	2	1	2	0	-58	0	-81	-11	-185	-35	2	4	-51	-35	-82	-29	-52.3389036451022704455	-35.9298655140496165927	-79.1471351480504097253	-25.6895020809872676182
5.0.14.0	win	042419	19:06:53	001	1	game	3	iti	16	1	4	4	0	0	2000	349	2	1	4	-11	-58	-35	-81	-11	-185	-35	2	4	-51	-35	-82	-29	-52.3389036451022704455	-35.9298655140496165927	-79.1471351480504097253	-25.6895020809872676182
5.0.14.0	win	042419	19:06:53	001	1	game	3	selection	17	1	5	5	0	slot4	382	382	4	1	4	-11	-58	-35	-81	-11	-210	-25	2	2	-47	-23	-81	-25	-52.060365115841186423	-37.2314496380983968038	-78.9356974408185720904	-22.0819177712365259936
5.0.14.0	win	042419	19:06:53	001	1	game	3	iti	20	1	5	5	0	0	2000	382	4	1	4	-25	-58	-35	-81	-25	-210	-25	2	2	-47	-23	-81	-25	-52.060365115841186423	-37.2314496380983968038	-78.9356974408185720904	-22.0819177712365259936
5.0.14.0	win	042419	19:06:53	001	1	game	3	selection	21	1	6	6	0	slot4	354	354	4	1	4	-25	-58	-35	-81	-25	-238	-28	1	4	-51	-38	-83	-28	-50.1660540950055988674	-39.16197982217135376	-86.5080546213699648206	-23.9328207307700182582
5.0.14.0	win	042419	19:06:53	001	1	game	3	iti	24	1	6	6	0	0	2000	354	4	1	4	-28	-58	-35	-81	-28	-238	-28	1	4	-51	-38	-83	-28	-50.1660540950055988674	-39.16197982217135376	-86.5080546213699648206	-23.9328207307700182582
5.0.14.0	win	042419	19:06:53	001	1	game	3	selection	25	1	7	7	0	slot4	415	415	4	1	4	-28	-58	-35	-81	-28	-260	-22	1	4	-42	-34	-88	-22	-47.5043065476561778837	-34.3350515052824505347	-87.1017786753150176082	-19.6853738238871187605
5.0.14.0	win	042419	19:06:53	001	1	game	3	iti	28	1	7	7	0	0	2000	415	4	1	4	-22	-58	-35	-81	-22	-260	-22	1	4	-42	-34	-88	-22	-47.5043065476561778837	-34.3350515052824505347	-87.1017786753150176082	-19.6853738238871187605
5.0.14.0	win	042419	19:06:53	001	1	game	3	selection	29	1	8	8	0	slot4	389	389	4	1	4	-22	-58	-35	-81	-22	-284	-24	1	4	-44	-37	-92	-24	-45.4844498559918974934	-35.3679680691324023201	-91.772069080549414366	-20.3781659517044104746
5.0.14.0	win	042419	19:06:53	001	1	game	3	iti	32	1	8	8	0	0	2000	389	4	1	4	-24	-58	-35	-81	-24	-284	-24	1	4	-44	-37	-92	-24	-45.4844498559918974934	-35.3679680691324023201	-91.772069080549414366	-20.3781659517044104746
5.0.14.0	win	042419	19:06:53	001	1	game	3	selection	33	1	9	9	0	slot4	462	462	4	1	4	-24	-58	-35	-81	-24	-301	-17	1	4	-50	-28	-93	-17	-46.2176683213219874347	-32.9279739366385797439	-93.0117435867167046126	-25.8058021228464369301
5.0.14.0	win	042419	19:06:53	001	1	game	3	iti	36	1	9	9	0	0	2000	462	4	1	4	-17	-58	-35	-81	-17	-301	-17	1	4	-50	-28	-93	-17	-46.2176683213219874347	-32.9279739366385797439	-93.0117435867167046126	-25.8058021228464369301
5.0.14.0	win	042419	19:06:53	001	1	game	3	selection	37	1	10	10	0	slot4	574	574	4	1	4	-17	-58	-35	-81	-17	-325	-24	1	4	-38	-31	-91	-24	-47.2554862446860610703	-33.5532006337096646575	-90.4632414411481278194	-21.3690910018433939399
5.0.14.0	win	042419	19:06:53	001	1	game	3	iti	40	1	10	10	0	0	2000	574	4	1	4	-24	-58	-35	-81	-24	-325	-24	1	4	-38	-31	-91	-24	-47.2554862446860610703	-33.5532006337096646575	-90.4632414411481278194	-21.3690910018433939399
5.0.14.0	win	042419	19:06:53	001	1	game	3	selection	41	1	11	11	0	slot4	488	488	4	1	4	-24	-58	-35	-81	-24	-350	-25	1	4	-41	-39	-89	-25	-46.6457498661929079731	-38.3119083190421960694	-91.4256161617083478177	-23.9114447724153613706
5.0.14.0	win	042419	19:06:53	001	1	game	3	iti	44	1	11	11	0	0	2000	488	4	1	4	-25	-58	-35	-81	-25	-350	-25	1	4	-41	-39	-89	-25	-46.6457498661929079731	-38.3119083190421960694	-91.4256161617083478177	-23.9114447724153613706
5.0.14.0	win	042419	19:06:53	001	1	game	3	selection	45	1	12	12	0	slot4	1267	1267	4	1	4	-25	-58	-35	-81	-25	-372	-22	1	4	-51	-41	-83	-22	-43.8476151312895723322	-39.7930126608321046433	-86.8098550114137168521	-20.8591880132918987556
5.0.14.0	win	042419	19:06:53	001	1	game	3	iti	48	1	12	12	0	0	2000	1267	4	1	4	-22	-58	-35	-81	-22	-372	-22	1	4	-51	-41	-83	-22	-43.8476151312895723322	-39.7930126608321046433	-86.8098550114137168521	-20.8591880132918987556
5.0.14.0	win	042419	19:06:53	001	1	game	3	selection	49	1	13	13	0	slot4	542	542	4	1	4	-22	-58	-35	-81	-22	-382	-10	1	4	-46	-44	-83	-10	-43.6828923340448511681	-39.4869117797063822195	-86.0222137138530911216	-21.4670736957996766137
5.0.14.0	win	042419	19:06:53	001	1	game	3	iti	52	1	13	13	0	0	2000	542	4	1	4	-10	-58	-35	-81	-10	-382	-10	1	4	-46	-44	-83	-10	-43.6828923340448511681	-39.4869117797063822195	-86.0222137138530911216	-21.4670736957996766137
5.0.14.0	win	042419	19:06:53	001	1	game	3	selection	53	1	14	14	0	slot4	604	604	4	1	4	-10	-58	-35	-81	-10	-399	-17	1	4	-51	-40	-80	-17	-45.3291070412318006788	-41.0345155545622688464	-85.4375987554073645924	-20.7000165799975626157
5.0.14.0	win	042419	19:06:53	001	1	game	3	iti	56	1	14	14	0	0	2000	604	4	1	4	-17	-58	-35	-81	-17	-399	-17	1	4	-51	-40	-80	-17	-45.3291070412318006788	-41.0345155545622688464	-85.4375987554073645924	-20.7000165799975626157
5.0.14.0	win	042419	19:06:53	001	1	game	3	selection	57	1	15	15	0	slot4	385	385	4	1	4	-17	-58	-35	-81	-17	-417	-18	1	4	-54	-45	-74	-18	-49.9900170246464981005	-41.9444089794546712824	-81.1263933349413548513	-21.8216042025164043139
5.0.14.0	win	042419	19:06:53	001	1	game	3	iti	60	1	15	15	0	0	2000	385	4	1	4	-18	-58	-35	-81	-18	-417	-18	1	4	-54	-45	-74	-18	-49.9900170246464981005	-41.9444089794546712824	-81.1263933349413548513	-21.8216042025164043139
5.0.14.0	win	042419	19:06:53	001	1	game	3	selection	61	1	16	16	0	slot4	506	506	4	1	4	-18	-58	-35	-81	-18	-440	-23	1	4	-51	-37	-86	-23	-48.0722902673247247662	-39.1655836526372453932	-81.9632207550001226082	-25.9947127354572522506
5.0.14.0	win	042419	19:06:53	001	1	game	3	iti	64	1	16	16	0	0	2000	506	4	1	4	-23	-58	-35	-81	-23	-440	-23	1	4	-51	-37	-86	-23	-48.0722902673247247662	-39.1655836526372453932	-81.9632207550001226082	-25.9947127354572522506
5.0.14.0	win	042419	19:06:53	001	1	game	3	selection	65	1	17	17	0	slot4	585	585	4	1	4	-23	-58	-35	-81	-23	-463	-23	1	4	-44	-39	-84	-23	-44.0373295859627731375	-38.1689036229196787531	-80.4262449138837354212	-24.7595928820566442141
5.0.14.0	win	042419	19:06:53	001	1	game	3	iti	68	1	17	17	0	0	2000	585	4	1	4	-23	-58	-35	-81	-23	-463	-23	1	4	-44	-39	-84	-23	-44.0373295859627731375	-38.1689036229196787531	-80.4262449138837354212	-24.7595928820566442141
5.0.14.0	win	042419	19:06:53	001	1	game	3	selection	69	1	18	18	0	slot4	441	441	4	1	4	-23	-58	-35	-81	-23	-496	-33	1	4	-43	-44	-86	-33	-45.2926959724548083841	-43.323361334920306831	-83.8346946961632397688	-28.775188067008105719
5.0.14.0	win	042419	19:06:53	001	1	game	3	iti	72	1	18	18	0	0	2000	441	4	1	4	-33	-58	-35	-81	-33	-496	-33	1	4	-43	-44	-86	-33	-45.2926959724548083841	-43.323361334920306831	-83.8346946961632397688	-28.775188067008105719
5.0.14.0	win	042419	19:06:53	001	1	game	3	selection	73	1	19	19	0	slot4	36	36	4	1	4	-33	-58	-35	-81	-33	-520	-24	1	4	-50	-37	-84	-24	-45.5639838603262887773	-41.8645961995088953245	-85.8678286366461946955	-27.1681943357904032155
5.0.14.0	win	042419	19:06:53	001	1	game	3	iti	76	1	19	19	0	0	2000	36	4	1	4	-24	-58	-35	-81	-24	-520	-24	1	4	-50	-37	-84	-24	-45.5639838603262887773	-41.8645961995088953245	-85.8678286366461946955	-27.1681943357904032155
5.0.14.0	win	042419	19:06:53	001	1	game	3	selection	77	1	20	20	0	slot4	451	451	4	1	4	-24	-58	-35	-81	-24	-538	-18	1	4	-50	-38	-84	-18	-48.2890199841530716185	-42.5989548800473798451	-88.0612437084272130505	-26.0662019312518431491
5.0.14.0	win	042419	19:06:53	001	1	game	3	iti	80	1	20	20	0	0	2000	451	4	1	4	-18	-58	-35	-81	-18	-538	-18	1	4	-50	-38	-84	-18	-48.2890199841530716185	-42.5989548800473798451	-88.0612437084272130505	-26.0662019312518431491
5.0.14.0	win	042419	19:06:53	001	1	game	3	selection	81	1	21	21	0	slot4	172	172	4	1	4	-18	-58	-35	-81	-18	-568	-30	1	4	-59	-33	-90	-30	-52.5511426406201493933	-43.1326410771784125586	-93.3150956403323021959	-27.200226748026615553
5.0.14.0	win	042419	19:06:53	001	1	game	3	iti	84	1	21	21	0	0	2000	172	4	1	4	-30	-58	-35	-81	-30	-568	-30	1	4	-59	-33	-90	-30	-52.5511426406201493933	-43.1326410771784125586	-93.3150956403323021959	-27.200226748026615553
5.0.14.0	win	042419	19:06:53	001	1	game	3	selection	85	1	22	22	0	slot4	352	352	4	1	4	-30	-58	-35	-81	-30	-594	-26	1	4	-47	-35	-91	-26	-50.0560861113855182225	-39.1466576559418228953	-95.5623895401857055276	-26.8170470174117312467
5.0.14.0	win	042419	19:06:53	001	1	game	3	iti	88	1	22	22	0	0	2000	352	4	1	4	-26	-58	-35	-81	-26	-594	-26	1	4	-47	-35	-91	-26	-50.0560861113855182225	-39.1466576559418228953	-95.5623895401857055276	-26.8170470174117312467
5.0.14.0	win	042419	19:06:53	001	1	game	3	selection	89	1	23	23	0	slot4	430	430	4	1	4	-26	-58	-35	-81	-26	-620	-26	1	4	-49	-39	-91	-26	-51.3104681758148970516	-38.9356888232220370583	-94.0308344295573448335	-29.5105652235066884259
5.0.14.0	win	042419	19:06:53	001	1	game	3	iti	92	1	23	23	0	0	2000	430	4	1	4	-26	-58	-35	-81	-26	-620	-26	1	4	-49	-39	-91	-26	-51.3104681758148970516	-38.9356888232220370583	-94.0308344295573448335	-29.5105652235066884259
5.0.14.0	win	042419	19:06:53	001	1	game	3	selection	93	1	24	24	0	slot4	272	272	4	1	4	-26	-58	-35	-81	-26	-655	-35	2	2	-44	-32	-100	-35	-50.0350494451122642658	-37.6266541478174616486	-97.8617073545913740418	-33.8106176019860527049
5.0.14.0	win	042419	19:06:53	001	1	game	3	iti	96	1	24	24	0	0	2000	272	4	1	2	-35	-58	-35	-81	-35	-655	-35	2	2	-44	-32	-100	-35	-50.0350494451122642658	-37.6266541478174616486	-97.8617073545913740418	-33.8106176019860527049
5.0.14.0	win	042419	19:06:53	001	1	game	3	selection	97	1	25	25	0	slot4	453	453	4	2	2	-35	-58	-35	-81	-35	-683	-28	1	4	-52	-34	-94	-28	-52.9884175188855977012	-35.2759163052909556768	-96.9277463904591485289	-32.2625208634435836075
5.0.14.0	win	042419	19:06:53	001	1	game	3	iti	100	1	25	25	0	0	2000	453	4	2	4	-28	-58	-35	-81	-28	-683	-28	1	4	-52	-34	-94	-28	-52.9884175188855977012	-35.2759163052909556768	-96.9277463904591485289	-32.2625208634435836075
5.0.14.0	win	042419	19:06:53	001	1	game	3	selection	101	1	26	26	0	slot4	371	371	4	1	4	-28	-58	-35	-81	-28	-705	-22	1	4	-57	-32	-88	-22	-52.6724312453897738351	-34.3204457611408457751	-94.4439040129505826826	-26.6527187910625897871
5.0.14.0	win	042419	19:06:53	001	1	game	3	iti	104	1	26	26	0	0	2000	371	4	1	4	-22	-58	-35	-81	-22	-705	-22	1	4	-57	-32	-88	-22	-52.6724312453897738351	-34.3204457611408457751	-94.4439040129505826826	-26.6527187910625897871
5.0.14.0	win	042419	19:06:53	001	1	game	3	selection	105	1	27	27	0	slot4	338	338	4	1	4	-22	-58	-35	-81	-22	-735	-30	1	4	-49	-39	-97	-30	-57.7876857079641297332	-39.3478953092124044133	-94.2585576608841364532	-30.1317993651159241608
5.0.14.0	win	042419	19:06:53	001	1	game	3	iti	108	1	27	27	0	0	2000	338	4	1	4	-30	-58	-35	-81	-30	-735	-30	1	4	-49	-39	-97	-30	-57.7876857079641297332	-39.3478953092124044133	-94.2585576608841364532	-30.1317993651159241608
5.0.14.0	win	042419	19:06:53	001	1	game	3	selection	109	1	28	28	0	slot4	186	186	4	1	4	-30	-58	-35	-81	-30	-762	-27	1	4	-52	-33	-95	-27	-56.6651387558461436811	-36.069256050069093078	-93.939852543959929676	-31.0297863099026436373
5.0.14.0	win	042419	19:06:53	001	1	game	3	iti	112	1	28	28	0	0	2000	186	4	1	4	-27	-58	-35	-81	-27	-762	-27	1	4	-52	-33	-95	-27	-56.6651387558461436811	-36.069256050069093078	-93.939852543959929676	-31.0297863099026436373
5.0.14.0	win	042419	19:06:53	001	1	game	3	selection	113	1	29	29	0	slot4	419	419	4	1	4	-27	-58	-35	-81	-27	-798	-36	2	2	-56	-31	-94	-36	-53.9581707564490784534	-36.5752094383052295257	-92.11237493257331721	-34.4737494638377910405
5.0.14.0	win	042419	19:06:53	001	1	game	3	iti	116	1	29	29	0	0	2000	419	4	1	2	-35	-58	-35	-81	-36	-798	-36	2	2	-56	-31	-94	-36	-53.9581707564490784534	-36.5752094383052295257	-92.11237493257331721	-34.4737494638377910405
5.0.14.0	win	042419	19:06:53	001	1	game	3	selection	117	1	30	30	0	slot4	320	320	4	2	2	-35	-58	-35	-81	-36	-830	-32	1	4	-53	-35	-88	-32	-50.64779629312189968	-37.9020857977879899181	-87.5682857697484848813	-33.622512140935747027
5.0.14.0	win	042419	19:06:53	001	1	game	3	iti	120	1	30	30	0	0	2000	320	4	2	4	-32	-58	-35	-81	-32	-830	-32	1	4	-53	-35	-88	-32	-50.64779629312189968	-37.9020857977879899181	-87.5682857697484848813	-33.622512140935747027
5.0.14.0	win	042419	19:06:53	001	1	game	3	selection	121	1	31	31	0	slot4	634	634	4	1	4	-32	-58	-35	-81	-32	-875	-45	2	2	-52	-44	-84	-45	-47.2279930309739341965	-40.4717827503238893883	-86.0924190972839937785	-37.9167872918710102681
5.0.14.0	win	042419	19:06:53	001	1	game	3	iti	124	1	31	31	0	0	2000	634	4	1	2	-35	-58	-35	-81	-45	-875	-45	2	2	-52	-44	-84	-45	-47.2279930309739341965	-40.4717827503238893883	-86.0924190972839937785	-37.9167872918710102681
5.0.14.0	win	042419	19:06:53	001	1	game	3	selection	125	1	32	32	0	slot1	357	357	1	2	2	-35	-58	-35	-81	-45	-925	-50	2	2	-50	-36	-81	-45	-49.3203883255597688162	-40.757447374447195898	-83.5038208574293179254	-41.057202954367440384
5.0.14.0	win	042419	19:06:53	001	1	game	3	iti	128	1	32	32	0	0	2000	357	1	2	2	-35	-50	-35	-81	-45	-925	-50	2	2	-50	-36	-81	-45	-49.3203883255597688162	-40.757447374447195898	-83.5038208574293179254	-41.057202954367440384
5.0.14.0	win	042419	19:06:53	001	1	game	3	selection	129	1	33	33	0	slot2	450	450	2	1	2	-35	-50	-35	-81	-45	-957	-32	1	2	-50	-32	-79	-37	-49.2088760107981002534	-40.1245517007355516625	-77.610418925419779157	-45.9603459283234769828
5.0.14.0	win	042419	19:06:53	001	1	game	3	iti	132	1	33	33	0	0	2000	450	2	1	2	-32	-50	-32	-81	-45	-957	-32	1	2	-50	-32	-79	-37	-49.2088760107981002534	-40.1245517007355516625	-77.610418925419779157	-45.9603459283234769828
5.0.14.0	win	042419	19:06:53	001	1	game	3	selection	133	1	34	34	0	slot3	368	368	3	2	2	-32	-50	-32	-81	-45	-1031	-74	2	2	-52	-36	-74	-41	-46.9407514842517770148	-43.3599521403609742265	-79.9567220058386851633	-43.9430739539779153802
5.0.14.0	win	042419	19:06:53	001	1	game	3	iti	136	1	34	34	0	0	2000	368	3	2	2	-32	-50	-32	-74	-45	-1031	-74	2	2	-52	-36	-74	-41	-46.9407514842517770148	-43.3599521403609742265	-79.9567220058386851633	-43.9430739539779153802
5.0.14.0	win	042419	19:06:53	001	1	game	3	selection	137	1	35	35	0	slot2	846	846	2	1	2	-32	-50	-32	-74	-45	-1063	-32	1	2	-50	-32	-77	-44	-48.9689796922992783834	-41.9095157013669847856	-78.6298750510284776283	-41.6576693401095496938
5.0.14.0	win	042419	19:06:53	001	1	game	3	iti	140	1	35	35	0	0	2000	846	2	1	2	-32	-50	-32	-74	-45	-1063	-32	1	2	-50	-32	-77	-44	-48.9689796922992783834	-41.9095157013669847856	-78.6298750510284776283	-41.6576693401095496938
5.0.14.0	win	042419	19:06:53	001	1	game	3	selection	141	1	36	36	0	slot2	366	366	2	1	2	-32	-50	-32	-74	-45	-1104	-41	2	4	-44	-41	-79	-31	-47.5855340864336682216	-42.5356005771089584755	-82.266024914916854982	-37.6927148436983969759
5.0.14.0	win	042419	19:06:53	001	1	game	3	iti	144	1	36	36	0	0	2000	366	2	1	2	-41	-50	-41	-74	-45	-1104	-41	2	4	-44	-41	-79	-31	-47.5855340864336682216	-42.5356005771089584755	-82.266024914916854982	-37.6927148436983969759
5.0.14.0	win	042419	19:06:53	001	1	game	3	selection	145	1	37	37	0	slot2	479	479	2	1	2	-41	-50	-41	-74	-45	-1154	-50	2	4	-53	-50	-87	-44	-43.5754621219602142901	-42.7468678678963271977	-81.3201437718510504737	-41.3116295732928691109
5.0.14.0	win	042419	19:06:53	001	1	game	3	iti	148	1	37	37	0	0	2000	479	2	1	4	-45	-50	-50	-74	-45	-1154	-50	2	4	-53	-50	-87	-44	-43.5754621219602142901	-42.7468678678963271977	-81.3201437718510504737	-41.3116295732928691109
5.0.14.0	win	042419	19:06:53	001	1	game	3	selection	149	1	38	38	0	slot1	779	779	1	2	4	-45	-50	-50	-74	-45	-1206	-52	2	4	-52	-46	-75	-43	-49.5546143717955160923	-43.9527307801044742064	-80.1220668623752061421	-42.4189723436354952923
5.0.14.0	win	042419	19:06:53	001	1	game	3	iti	152	1	38	38	0	0	2000	779	1	2	4	-45	-52	-50	-74	-45	-1206	-52	2	4	-52	-46	-75	-43	-49.5546143717955160923	-43.9527307801044742064	-80.1220668623752061421	-42.4189723436354952923
5.0.14.0	win	042419	19:06:53	001	1	game	3	selection	153	1	39	39	0	slot4	423	423	4	1	4	-45	-52	-50	-74	-45	-1239	-33	1	4	-49	-47	-70	-33	-46.5974297715425223032	-44.4967223432175558173	-76.7316528205245873551	-41.7862855363189424907
5.0.14.0	win	042419	19:06:53	001	1	game	3	iti	156	1	39	39	0	0	2000	423	4	1	4	-33	-52	-50	-74	-33	-1239	-33	1	4	-49	-47	-70	-33	-46.5974297715425223032	-44.4967223432175558173	-76.7316528205245873551	-41.7862855363189424907
5.0.14.0	win	042419	19:06:53	001	1	game	3	selection	157	1	40	40	0	slot4	469	469	4	1	4	-33	-52	-50	-74	-33	-1281	-42	2	1	-40	-49	-79	-42	-43.7934182087444625608	-44.9994695691171671115	-79.6498836645391889988	-40.9535870153510899172
5.0.14.0	win	042419	19:06:53	001	1	game	3	iti	160	1	40	40	0	0	2000	469	4	1	4	-42	-52	-50	-74	-42	-1281	-42	2	1	-40	-49	-79	-42	-43.7934182087444625608	-44.9994695691171671115	-79.6498836645391889988	-40.9535870153510899172
5.0.14.0	win	042419	19:06:53	001	1	game	3	selection	161	1	41	41	0	slot4	459	459	4	1	4	-42	-52	-50	-74	-42	-1321	-40	1	4	-53	-46	-81	-40	-47.0117085356794461859	-49.9877051750553889065	-84.4866243906297000876	-39.5686607921941657651
5.0.14.0	win	042419	19:06:53	001	1	game	3	iti	164	1	41	41	0	0	2000	459	4	1	4	-40	-52	-50	-74	-40	-1321	-40	1	4	-53	-46	-81	-40	-47.0117085356794461859	-49.9877051750553889065	-84.4866243906297000876	-39.5686607921941657651
5.0.14.0	win	042419	19:06:53	001	1	game	3	selection	165	1	42	42	0	slot2	400	400	2	2	4	-40	-52	-50	-74	-40	-1371	-50	2	4	-53	-50	-81	-34	-53.1728886700638270213	-50.0417110304649384034	-87.2247921652643896095	-36.5351853026823576442
5.0.14.0	win	042419	19:06:53	001	1	game	3	iti	168	1	42	42	0	0	2000	400	2	2	4	-40	-52	-50	-74	-40	-1371	-50	2	4	-53	-50	-81	-34	-53.1728886700638270213	-50.0417110304649384034	-87.2247921652643896095	-36.5351853026823576442
5.0.14.0	win	042419	19:06:53	001	1	game	3	selection	169	1	43	43	0	slot4	350	350	4	1	4	-40	-52	-50	-74	-40	-1413	-42	1	4	-45	-48	-86	-42	-48.0434493589707543038	-44.506343319619304566	-86.7421521640808634857	-37.4449134498567346441
5.0.14.0	win	042419	19:06:53	001	1	game	3	iti	172	1	43	43	0	0	2000	350	4	1	4	-42	-52	-50	-74	-42	-1413	-42	1	4	-45	-48	-86	-42	-48.0434493589707543038	-44.506343319619304566	-86.7421521640808634857	-37.4449134498567346441
5.0.14.0	win	042419	19:06:53	001	1	game	3	selection	173	1	44	44	0	slot4	453	453	4	1	4	-42	-52	-50	-74	-42	-1458	-45	1	4	-54	-47	-89	-45	-49.391591359833803665	-48.7376071535223687192	-85.7144586918331015113	-39.6632247188662390158
5.0.14.0	win	042419	19:06:53	001	1	game	3	iti	176	1	44	44	0	0	2000	453	4	1	4	-45	-52	-50	-74	-45	-1458	-45	1	4	-54	-47	-89	-45	-49.391591359833803665	-48.7376071535223687192	-85.7144586918331015113	-39.6632247188662390158
5.0.14.0	win	042419	19:06:53	001	1	game	3	selection	177	1	45	45	0	slot3	151	151	3	2	4	-45	-52	-50	-74	-45	-1552	-94	2	4	-49	-44	-94	-31	-46.2494621340624263439	-48.5796181564192579572	-90.3783244558265437263	-41.7210096898883833205
5.0.14.0	win	042419	19:06:53	001	1	game	3	iti	180	1	45	45	0	0	2000	151	3	2	4	-45	-52	-50	-94	-45	-1552	-94	2	4	-49	-44	-94	-31	-46.2494621340624263439	-48.5796181564192579572	-90.3783244558265437263	-41.7210096898883833205
5.0.14.0	win	042419	19:06:53	001	1	game	3	selection	181	1	46	46	0	slot1	401	401	1	2	4	-45	-52	-50	-94	-45	-1595	-43	1	1	-43	-55	-93	-44	-46.4120023896692543985	-53.6733528428630677354	-91.350585043363139448	-43.5984077789579060891
5.0.14.0	win	042419	19:06:53	001	1	game	3	iti	184	1	46	46	0	0	2000	401	1	2	1	-43	-43	-50	-94	-45	-1595	-43	1	1	-43	-55	-93	-44	-46.4120023896692543985	-53.6733528428630677354	-91.350585043363139448	-43.5984077789579060891
5.0.14.0	win	042419	19:06:53	001	1	game	3	selection	185	1	47	47	0	slot2	350	350	2	2	1	-43	-43	-50	-94	-45	-1657	-62	2	4	-51	-62	-97	-38	-46.2618621493049246851	-56.8435261895785899355	-90.2658772950532153345	-44.1848454952677016649
5.0.14.0	win	042419	19:06:53	001	1	game	3	iti	188	1	47	47	0	0	2000	350	2	2	1	-43	-43	-62	-94	-45	-1657	-62	2	4	-51	-62	-97	-38	-46.2618621493049246851	-56.8435261895785899355	-90.2658772950532153345	-44.1848454952677016649
5.0.14.0	win	042419	19:06:53	001	1	game	3	selection	189	1	48	48	0	slot4	230	230	4	2	1	-43	-43	-62	-94	-45	-1700	-43	1	4	-46	-56	-95	-43	-46.1212191289142907635	-59.9575547174712681908	-93.7529826751079298219	-46.6388426525726131899
5.0.14.0	win	042419	19:06:53	001	1	game	3	iti	192	1	48	48	0	0	2000	230	4	2	1	-43	-43	-62	-94	-43	-1700	-43	1	4	-46	-56	-95	-43	-46.1212191289142907635	-59.9575547174712681908	-93.7529826751079298219	-46.6388426525726131899
5.0.14.0	win	042419	19:06:53	001	1	game	3	selection	193	1	49	49	0	slot4	412	412	4	2	1	-43	-43	-62	-94	-43	-1746	-46	2	1	-43	-60	-97	-46	-48.3761412048388450557	-59.627906900401519863	-94.2838032814543112181	-46.1318563414168067993
5.0.14.0	win	042419	19:06:53	001	1	game	3	iti	196	1	49	49	0	0	2000	412	4	2	1	-43	-43	-62	-94	-46	-1746	-46	2	1	-43	-60	-97	-46	-48.3761412048388450557	-59.627906900401519863	-94.2838032814543112181	-46.1318563414168067993
5.0.14.0	win	042419	19:06:53	001	1	game	3	selection	197	1	50	50	0	slot4	559	559	4	2	1	-43	-43	-62	-94	-46	-1790	-44	1	4	-45	-47	-91	-44	-49.3622595581686525179	-58.5605797459461001608	-91.2067489658385852636	-46.6983585893694623792
5.0.14.0	win	042419	19:06:53	001	1	game	3	iti	200	1	50	50	0	0	2000	559	4	2	1	-43	-43	-62	-94	-44	-1790	-44	1	4	-45	-47	-91	-44	-49.3622595581686525179	-58.5605797459461001608	-91.2067489658385852636	-46.6983585893694623792
5.0.14.0	win	042419	19:06:53	001	1	game	3	selection	201	1	51	51	0	slot1	194	194	1	1	1	-43	-43	-62	-94	-44	-1830	-40	1	1	-40	-63	-92	-50	-45.6872513977218019932	-60.5843395650587552836	-89.8703770532298449325	-45.3164208025038419692
5.0.14.0	win	042419	19:06:53	001	1	game	3	iti	204	1	51	51	0	0	2000	194	1	1	1	-40	-40	-62	-94	-44	-1830	-40	1	1	-40	-63	-92	-50	-45.6872513977218019932	-60.5843395650587552836	-89.8703770532298449325	-45.3164208025038419692
5.0.14.0	win	042419	19:06:53	001	1	game	3	selection	205	1	52	52	0	slot2	415	415	2	2	1	-40	-40	-62	-94	-44	-1886	-56	2	1	-49	-56	-91	-51	-46.5880942636959645142	-59.5417022731433291938	-87.9405140483869871559	-43.450778067366051971
5.0.14.0	win	042419	19:06:53	001	1	game	3	iti	208	1	52	52	0	0	2000	415	2	2	1	-40	-40	-56	-94	-44	-1886	-56	2	1	-49	-56	-91	-51	-46.5880942636959645142	-59.5417022731433291938	-87.9405140483869871559	-43.450778067366051971
5.0.14.0	win	042419	19:06:53	001	1	game	3	selection	209	1	53	53	0	slot1	234	234	1	1	1	-40	-40	-56	-94	-44	-1939	-53	2	4	-53	-66	-91	-40	-46.118354909432042632	-62.6601376614350229488	-87.8980236483960055693	-42.0695231762885057947
5.0.14.0	win	042419	19:06:53	001	1	game	3	iti	212	1	53	53	0	0	2000	234	1	1	4	-44	-53	-56	-94	-44	-1939	-53	2	4	-53	-66	-91	-40	-46.118354909432042632	-62.6601376614350229488	-87.8980236483960055693	-42.0695231762885057947
5.0.14.0	win	042419	19:06:53	001	1	game	3	selection	213	1	54	54	0	slot4	144	144	4	1	4	-44	-53	-56	-94	-44	-1977	-38	1	4	-47	-64	-91	-38	-46.3694940101936978749	-67.0211100466764264638	-85.2618329193172002078	-38.6050791492565963381
5.0.14.0	win	042419	19:06:53	001	1	game	3	iti	216	1	54	54	0	0	2000	144	4	1	4	-38	-53	-56	-94	-38	-1977	-38	1	4	-47	-64	-91	-38	-46.3694940101936978749	-67.0211100466764264638	-85.2618329193172002078	-38.6050791492565963381
5.0.14.0	win	042419	19:06:53	001	1	game	3	selection	217	1	55	55	0	slot4	501	501	4	1	4	-38	-53	-56	-94	-38	-2016	-39	1	4	-47	-62	-83	-39	-49.4889248667935106596	-63.075656783503795566	-85.7575907887817407982	-39.5535460079835132774
5.0.14.0	win	042419	19:06:53	001	1	game	3	iti	220	1	55	55	0	0	2000	501	4	1	4	-39	-53	-56	-94	-39	-2016	-39	1	4	-47	-62	-83	-39	-49.4889248667935106596	-63.075656783503795566	-85.7575907887817407982	-39.5535460079835132774
5.0.14.0	win	042419	19:06:53	001	1	game	3	selection	221	1	56	56	0	slot4	390	390	4	1	4	-39	-53	-56	-94	-39	-2066	-50	1	4	-54	-65	-84	-50	-48.8001548351505931578	-62.5494309254303217926	-82.2995665203440864843	-44.249834067844467711
5.0.14.0	win	042419	19:06:53	001	1	game	3	iti	224	1	56	56	0	0	2000	390	4	1	4	-50	-53	-56	-94	-50	-2066	-50	1	4	-54	-65	-84	-50	-48.8001548351505931578	-62.5494309254303217926	-82.2995665203440864843	-44.249834067844467711
5.0.14.0	win	042419	19:06:53	001	1	game	3	selection	225	1	57	57	0	slot4	551	551	4	1	4	-50	-53	-56	-94	-50	-2109	-43	1	4	-61	-60	-79	-43	-50.5059652947501334097	-61.8104597145749394826	-85.5503572068811735107	-45.4954639574895480791
5.0.14.0	win	042419	19:06:53	001	1	game	3	iti	228	1	57	57	0	0	2000	551	4	1	4	-43	-53	-56	-94	-43	-2109	-43	1	4	-61	-60	-79	-43	-50.5059652947501334097	-61.8104597145749394826	-85.5503572068811735107	-45.4954639574895480791
5.0.14.0	win	042419	19:06:53	001	1	game	3	selection	229	1	58	58	0	slot4	322	322	4	1	4	-43	-53	-56	-94	-43	-2152	-43	1	4	-54	-61	-82	-43	-52.8490796375210010183	-66.0816451447653889772	-86.9156520809718955434	-42.8254679537662070743
5.0.14.0	win	042419	19:06:53	001	1	game	3	iti	232	1	58	58	0	0	2000	322	4	1	4	-43	-53	-56	-94	-43	-2152	-43	1	4	-54	-61	-82	-43	-52.8490796375210010183	-66.0816451447653889772	-86.9156520809718955434	-42.8254679537662070743
5.0.14.0	win	042419	19:06:53	001	1	game	3	selection	233	1	59	59	0	slot4	392	392	4	1	4	-43	-53	-56	-94	-43	-2201	-49	1	4	-51	-62	-92	-49	-50.4679811226245860212	-62.8910133707590048857	-91.2906918822729664953	-45.7550669359687987026
5.0.14.0	win	042419	19:06:53	001	1	game	3	iti	236	1	59	59	0	0	2000	392	4	1	4	-49	-53	-56	-94	-49	-2201	-49	1	4	-51	-62	-92	-49	-50.4679811226245860212	-62.8910133707590048857	-91.2906918822729664953	-45.7550669359687987026
5.0.14.0	win	042419	19:06:53	001	1	game	3	selection	237	1	60	60	0	slot1	971	971	1	2	4	-49	-53	-56	-94	-49	-2246	-45	1	1	-45	-54	-100	-47	-47.4896458299073103149	-61.9463603486733376258	-95.5354340257417504745	-49.1541679340955326438
5.0.14.0	win	042419	19:06:53	001	1	game	3	iti	240	1	60	60	0	0	2000	971	1	2	1	-45	-45	-56	-94	-49	-2246	-45	1	1	-45	-54	-100	-47	-47.4896458299073103149	-61.9463603486733376258	-95.5354340257417504745	-49.1541679340955326438
5.0.14.0	win	042419	19:06:53	001	1	game	3	selection	241	1	61	61	0	slot4	834	834	4	2	1	-45	-45	-56	-94	-49	-2288	-42	1	4	-46	-69	-100	-42	-42.7175080031896996502	-62.0121679691166676207	-97.4579855112159947339	-45.9710833251469708216
5.0.14.0	win	042419	19:06:53	001	1	game	3	iti	244	1	61	61	0	0	2000	834	4	2	4	-42	-45	-56	-94	-42	-2288	-42	1	4	-46	-69	-100	-42	-42.7175080031896996502	-62.0121679691166676207	-97.4579855112159947339	-45.9710833251469708216
5.0.14.0	win	042419	19:06:53	001	1	game	3	selection	245	1	62	62	0	slot4	526	526	4	1	4	-42	-45	-56	-94	-42	-2328	-40	1	4	-46	-58	-100	-40	-40.741211139519776907	-60.9318567353429756395	-100.2912158019217940819	-41.5971146909159230631
5.0.14.0	win	042419	19:06:53	001	1	game	3	iti	248	1	62	62	0	0	2000	526	4	1	4	-40	-45	-56	-94	-40	-2328	-40	1	4	-46	-58	-100	-40	-40.741211139519776907	-60.9318567353429756395	-100.2912158019217940819	-41.5971146909159230631
5.0.14.0	win	042419	19:06:53	001	1	game	3	selection	249	1	63	63	0	slot4	756	756	4	1	4	-40	-45	-56	-94	-40	-2373	-45	1	4	-52	-60	-91	-45	-47.1323281337476913677	-58.6832952515112040714	-94.5213545820321030533	-39.5357841895501493923
5.0.14.0	win	042419	19:06:53	001	1	game	3	iti	252	1	63	63	0	0	2000	756	4	1	1	-45	-45	-56	-94	-45	-2373	-45	1	4	-52	-60	-91	-45	-47.1323281337476913677	-58.6832952515112040714	-94.5213545820321030533	-39.5357841895501493923
5.0.14.0	win	042419	19:06:53	001	1	game	3	selection	253	1	64	64	0	slot1	661	661	1	1	1	-45	-45	-56	-94	-45	-2418	-45	2	4	-45	-50	-92	-44	-41.7809666826675893958	-58.3570396835205897901	-93.2831212819335036102	-43.3279081434198616307
5.0.14.0	win	042419	19:06:53	001	1	game	3	iti	256	1	64	64	0	0	2000	661	1	1	1	-45	-45	-56	-94	-45	-2418	-45	2	4	-45	-50	-92	-44	-41.7809666826675893958	-58.3570396835205897901	-93.2831212819335036102	-43.3279081434198616307
5.0.14.0	win	042419	19:06:53	001	1	game	3	selection	257	1	65	65	0	slot4	434	434	4	2	1	-45	-45	-56	-94	-45	-2467	-49	2	1	-48	-52	-90	-49	-41.332910649402712977	-59.2922847352437401014	-88.1521800765926002441	-49.7005474612420172775
5.0.14.0	win	042419	19:06:53	001	1	game	3	iti	260	1	65	65	0	0	2000	434	4	2	1	-45	-45	-56	-94	-49	-2467	-49	2	1	-48	-52	-90	-49	-41.332910649402712977	-59.2922847352437401014	-88.1521800765926002441	-49.7005474612420172775
5.0.14.0	win	042419	19:06:53	001	1	game	3	selection	261	1	66	66	0	slot2	386	386	2	2	1	-45	-45	-56	-94	-49	-2522	-55	2	1	-38	-55	-89	-46	-40.738863119686890002	-60.9371152382862248942	-87.9581470637399434054	-49.3285521350047702072
5.0.14.0	win	042419	19:06:53	001	1	game	3	iti	264	1	66	66	0	0	2000	386	2	2	1	-45	-45	-55	-94	-49	-2522	-55	2	1	-38	-55	-89	-46	-40.738863119686890002	-60.9371152382862248942	-87.9581470637399434054	-49.3285521350047702072
5.0.14.0	win	042419	19:06:53	001	1	game	3	selection	265	1	67	67	0	slot1	408	408	1	1	1	-45	-45	-55	-94	-49	-2559	-37	1	1	-37	-62	-87	-51	-44.3880506941061412363	-61.40437209222760373	-86.0636332721104508892	-49.3708323447394903383
5.0.14.0	win	042419	19:06:53	001	1	game	3	iti	268	1	67	67	0	0	2000	408	1	1	1	-37	-37	-55	-94	-49	-2559	-37	1	1	-37	-62	-87	-51	-44.3880506941061412363	-61.40437209222760373	-86.0636332721104508892	-49.3708323447394903383
5.0.14.0	win	042419	19:06:53	001	1	game	3	selection	269	1	68	68	0	slot4	478	478	4	2	1	-37	-37	-55	-94	-49	-2604	-45	1	4	-47	-65	-94	-45	-49.6256532683782438653	-66.0975112724048443624	-87.8365825646690865369	-43.6504459419157697653
5.0.14.0	win	042419	19:06:53	001	1	game	3	iti	272	1	68	68	0	0	2000	478	4	2	1	-37	-37	-55	-94	-45	-2604	-45	1	4	-47	-65	-94	-45	-49.6256532683782438653	-66.0975112724048443624	-87.8365825646690865369	-43.6504459419157697653
5.0.14.0	win	042419	19:06:53	001	1	game	3	selection	273	1	69	69	0	slot1	427	427	1	1	1	-37	-37	-55	-94	-45	-2654	-50	2	4	-50	-55	-95	-37	-46.9326147387981507109	-57.8757273732816130973	-90.0635348190552775804	-41.3698389616111583678
5.0.14.0	win	042419	19:06:53	001	1	game	3	iti	276	1	69	69	0	0	2000	427	1	1	4	-45	-50	-55	-94	-45	-2654	-50	2	4	-50	-55	-95	-37	-46.9326147387981507109	-57.8757273732816130973	-90.0635348190552775804	-41.3698389616111583678
5.0.14.0	win	042419	19:06:53	001	1	game	3	selection	277	1	70	70	0	slot4	122	122	4	1	4	-45	-50	-55	-94	-45	-2688	-34	1	4	-47	-62	-92	-34	-46.0157285044928272555	-60.1859945603653656576	-92.0414874562975171557	-36.7900714067475291813
5.0.14.0	win	042419	19:06:53	001	1	game	3	iti	280	1	70	70	0	0	2000	122	4	1	4	-34	-50	-55	-94	-34	-2688	-34	1	4	-47	-62	-92	-34	-46.0157285044928272555	-60.1859945603653656576	-92.0414874562975171557	-36.7900714067475291813
5.0.14.0	win	042419	19:06:53	001	1	game	3	selection	281	1	71	71	0	slot4	423	423	4	1	4	-34	-50	-55	-94	-34	-2722	-34	1	4	-37	-58	-96	-34	-40.0683244393089168511	-63.1133860504606047925	-92.4245296472605559757	-39.5447837216735891275
5.0.14.0	win	042419	19:06:53	001	1	game	3	iti	284	1	71	71	0	0	2000	423	4	1	4	-34	-50	-55	-94	-34	-2722	-34	1	4	-37	-58	-96	-34	-40.0683244393089168511	-63.1133860504606047925	-92.4245296472605559757	-39.5447837216735891275
5.0.14.0	win	042419	19:06:53	001	1	game	3	selection	285	1	72	72	0	slot4	507	507	4	1	4	-34	-50	-55	-94	-34	-2769	-47	2	1	-39	-63	-96	-47	-34.2606631259532292688	-65.8773245127296576129	-93.5678596501325614554	-38.8474913056186892391
5.0.14.0	win	042419	19:06:53	001	1	game	3	iti	288	1	72	72	0	0	2000	507	4	1	4	-47	-50	-55	-94	-47	-2769	-47	2	1	-39	-63	-96	-47	-34.2606631259532292688	-65.8773245127296576129	-93.5678596501325614554	-38.8474913056186892391
5.0.14.0	win	042419	19:06:53	001	1	game	3	selection	289	1	73	73	0	slot2	216	216	2	2	4	-47	-50	-55	-94	-47	-2835	-66	2	1	-31	-66	-97	-43	-33.041694054043070139	-67.5822746888488836703	-98.6978469798920343692	-40.1808452639648407967
5.0.14.0	win	042419	19:06:53	001	1	game	3	iti	292	1	73	73	0	0	2000	216	2	2	4	-47	-50	-66	-94	-47	-2835	-66	2	1	-31	-66	-97	-43	-33.041694054043070139	-67.5822746888488836703	-98.6978469798920343692	-40.1808452639648407967
5.0.14.0	win	042419	19:06:53	001	1	game	3	selection	293	1	74	74	0	slot1	205	205	1	2	4	-47	-50	-66	-94	-47	-2863	-28	1	1	-28	-64	-98	-43	-32.1440090219953162887	-66.2854247646224195023	-102.2199004077517088263	-42.9074150390787991682
5.0.14.0	win	042419	19:06:53	001	1	game	3	iti	296	1	74	74	0	0	2000	205	1	2	1	-28	-28	-66	-94	-47	-2863	-28	1	1	-28	-64	-98	-43	-32.1440090219953162887	-66.2854247646224195023	-102.2199004077517088263	-42.9074150390787991682
5.0.14.0	win	042419	19:06:53	001	1	game	3	selection	297	1	75	75	0	slot1	507	507	1	1	1	-28	-28	-66	-94	-47	-2892	-29	1	1	-29	-64	-99	-47	-31.0847412601385180153	-63.596860020069136965	-98.7977107378076340183	-46.1973644553454150241
5.0.14.0	win	042419	19:06:53	001	1	game	3	iti	300	1	75	75	0	0	2000	507	1	1	1	-29	-29	-66	-94	-47	-2892	-29	1	1	-29	-64	-99	-47	-31.0847412601385180153	-63.596860020069136965	-98.7977107378076340183	-46.1973644553454150241
5.0.14.0	win	042419	19:06:53	001	1	game	3	selection	301	1	76	76	0	slot1	383	383	1	1	1	-29	-29	-66	-94	-47	-2926	-34	1	1	-34	-58	-97	-57	-32.3397557783766629314	-58.0988316474822781288	-95.5574291011371599325	-49.1117965091457620019
5.0.14.0	win	042419	19:06:53	001	1	game	3	iti	304	1	76	76	0	0	2000	383	1	1	1	-34	-34	-66	-94	-47	-2926	-34	1	1	-34	-58	-97	-57	-32.3397557783766629314	-58.0988316474822781288	-95.5574291011371599325	-49.1117965091457620019
5.0.14.0	win	042419	19:06:53	001	1	game	3	selection	305	1	77	77	0	slot1	604	604	1	1	1	-34	-34	-66	-94	-47	-2956	-30	1	1	-30	-62	-94	-46	-30.6580901747926013456	-59.0136736578590657132	-92.3582558705154070822	-48.0275275055531025714
5.0.14.0	win	042419	19:06:53	001	1	game	3	iti	308	1	77	77	0	0	2000	604	1	1	1	-30	-30	-66	-94	-47	-2956	-30	1	1	-30	-62	-94	-46	-30.6580901747926013456	-59.0136736578590657132	-92.3582558705154070822	-48.0275275055531025714
5.0.14.0	win	042419	19:06:53	001	1	game	3	selection	309	1	78	78	0	slot1	566	566	1	1	1	-30	-30	-66	-94	-47	-2989	-33	1	1	-33	-52	-86	-47	-30.8660344793553917953	-54.9427723529722626949	-89.1206396582421547237	-48.4439670016916963391
5.0.14.0	win	042419	19:06:53	001	1	game	3	iti	312	1	78	78	0	0	2000	566	1	1	1	-33	-33	-66	-94	-47	-2989	-33	1	1	-33	-52	-86	-47	-30.8660344793553917953	-54.9427723529722626949	-89.1206396582421547237	-48.4439670016916963391
5.0.14.0	win	042419	19:06:53	001	1	game	3	selection	313	1	79	79	0	slot1	699	699	1	1	1	-33	-33	-66	-94	-47	-3027	-38	1	1	-38	-57	-90	-54	-34.5078724657214692684	-54.5109167075476790387	-90.2565865966828368983	-49.01129375819188283
5.0.14.0	win	042419	19:06:53	001	1	game	3	iti	316	1	79	79	0	0	2000	699	1	1	1	-38	-38	-66	-94	-47	-3027	-38	1	1	-38	-57	-90	-54	-34.5078724657214692684	-54.5109167075476790387	-90.2565865966828368983	-49.01129375819188283
5.0.14.0	win	042419	19:06:53	001	1	game	3	selection	317	1	80	80	0	slot2	406	406	2	2	1	-38	-38	-66	-94	-47	-3081	-54	2	1	-38	-54	-90	-46	-37.9332670696888527573	-55.1069366000066338529	-90.6630551055787350379	-45.1385972484502104862
5.0.14.0	win	042419	19:06:53	001	1	game	3	iti	320	1	80	80	0	0	2000	406	2	2	1	-38	-38	-54	-94	-47	-3081	-54	2	1	-38	-54	-90	-46	-37.9332670696888527573	-55.1069366000066338529	-90.6630551055787350379	-45.1385972484502104862
5.0.14.0	win	042419	19:06:53	001	1	game	3	selection	321	1	81	81	0	slot1	1	1	1	1	1	-38	-38	-54	-94	-47	-3117	-36	1	1	-36	-54	-84	-46	-35.6332568876535020763	-49.0552307618191463234	-89.8064130264868936138	-44.6306310240516523891
5.0.14.0	win	042419	19:06:53	001	1	game	3	iti	324	1	81	81	0	0	2000	1	1	1	1	-36	-36	-54	-94	-47	-3117	-36	1	1	-36	-54	-84	-46	-35.6332568876535020763	-49.0552307618191463234	-89.8064130264868936138	-44.6306310240516523891
5.0.14.0	win	042419	19:06:53	001	1	game	3	selection	325	1	82	82	0	slot1	575	575	1	1	1	-36	-36	-54	-94	-47	-3151	-34	1	1	-34	-47	-87	-51	-35.0410048690745625777	-49.6807013765897380608	-89.214781485332991906	-49.3643792397834957342
5.0.14.0	win	042419	19:06:53	001	1	game	3	iti	328	1	82	82	0	0	2000	575	1	1	1	-34	-34	-54	-94	-47	-3151	-34	1	1	-34	-47	-87	-51	-35.0410048690745625777	-49.6807013765897380608	-89.214781485332991906	-49.3643792397834957342
5.0.14.0	win	042419	19:06:53	001	1	game	3	selection	329	1	83	83	0	slot1	379	379	1	1	1	-34	-34	-54	-94	-47	-3186	-35	1	1	-35	-48	-90	-55	-34.3162422469686703153	-50.3904767390998600263	-89.4245495240108709822	-48.7574448796941979367
5.0.14.0	win	042419	19:06:53	001	1	game	3	iti	332	1	83	83	0	0	2000	379	1	1	1	-35	-35	-54	-94	-47	-3186	-35	1	1	-35	-48	-90	-55	-34.3162422469686703153	-50.3904767390998600263	-89.4245495240108709822	-48.7574448796941979367
5.0.14.0	win	042419	19:06:53	001	1	game	3	selection	333	1	84	84	0	slot1	407	407	1	1	1	-35	-35	-54	-94	-47	-3220	-34	1	1	-34	-51	-90	-42	-33.861554791149522714	-45.6238004500062928059	-91.1999250341862506275	-45.5790548651126030677
5.0.14.0	win	042419	19:06:53	001	1	game	3	iti	336	1	84	84	0	0	2000	407	1	1	1	-34	-34	-54	-94	-47	-3220	-34	1	1	-34	-51	-90	-42	-33.861554791149522714	-45.6238004500062928059	-91.1999250341862506275	-45.5790548651126030677
5.0.14.0	win	042419	19:06:53	001	1	game	3	selection	337	1	85	85	0	slot1	416	416	1	1	1	-34	-34	-54	-94	-47	-3253	-33	1	1	-33	-53	-91	-46	-32.9437425972987512068	-51.1120486449595645695	-92.0016562133421160752	-42.0237016614707954432
5.0.14.0	win	042419	19:06:53	001	1	game	3	iti	340	1	85	85	0	0	2000	416	1	1	1	-33	-33	-54	-94	-47	-3253	-33	1	1	-33	-53	-91	-46	-32.9437425972987512068	-51.1120486449595645695	-92.0016562133421160752	-42.0237016614707954432
5.0.14.0	win	042419	19:06:53	001	1	game	3	selection	341	1	86	86	0	slot1	29	29	1	1	1	-33	-33	-54	-94	-47	-3279	-26	1	1	-26	-52	-89	-40	-29.5229157084492399576	-47.7161441191767323744	-91.0768874882087686728	-38.7480351777834428617
5.0.14.0	win	042419	19:06:53	001	1	game	3	iti	344	1	86	86	0	0	2000	29	1	1	1	-26	-26	-54	-94	-47	-3279	-26	1	1	-26	-52	-89	-40	-29.5229157084492399576	-47.7161441191767323744	-91.0768874882087686728	-38.7480351777834428617
5.0.14.0	win	042419	19:06:53	001	1	game	3	selection	345	1	87	87	0	slot1	525	525	1	1	1	-26	-26	-54	-94	-47	-3313	-34	1	1	-34	-49	-95	-38	-30.272282481928829867	-45.6517734130739611942	-92.8820978551090519204	-40.2144203120225540715
5.0.14.0	win	042419	19:06:53	001	1	game	3	iti	348	1	87	87	0	0	2000	525	1	1	1	-34	-34	-54	-94	-47	-3313	-34	1	1	-34	-49	-95	-38	-30.272282481928829867	-45.6517734130739611942	-92.8820978551090519204	-40.2144203120225540715
5.0.14.0	win	042419	19:06:53	001	1	game	3	selection	349	1	88	88	0	slot1	284	284	1	1	1	-34	-34	-54	-94	-47	-3345	-32	1	1	-32	-40	-100	-42	-29.2989704829425861021	-46.0433838729334610207	-97.08828642557628541	-43.9517625596644521124
5.0.14.0	win	042419	19:06:53	001	1	game	3	iti	352	1	88	88	0	0	2000	284	1	1	1	-32	-32	-54	-94	-47	-3345	-32	1	1	-32	-40	-100	-42	-29.2989704829425861021	-46.0433838729334610207	-97.08828642557628541	-43.9517625596644521124
5.0.14.0	win	042419	19:06:53	001	1	game	3	selection	353	1	89	89	0	slot1	402	402	1	1	1	-32	-32	-54	-94	-47	-3372	-27	1	1	-27	-40	-99	-56	-29.6587932364982300726	-45.5939676752728288989	-95.5177550917346565029	-48.4725834523066083648
5.0.14.0	win	042419	19:06:53	001	1	game	3	iti	356	1	89	89	0	0	2000	402	1	1	1	-27	-27	-54	-94	-47	-3372	-27	1	1	-27	-40	-99	-56	-29.6587932364982300726	-45.5939676752728288989	-95.5177550917346565029	-48.4725834523066083648
5.0.14.0	win	042419	19:06:53	001	1	game	3	selection	357	1	90	90	0	slot1	531	531	1	1	1	-27	-27	-54	-94	-47	-3394	-22	1	1	-22	-49	-91	-45	-22.8990550067553542135	-48.3484165843527335937	-92.5851781274186862447	-50.1366606708562798644
5.0.14.0	win	042419	19:06:53	001	1	game	3	iti	360	1	90	90	0	0	2000	531	1	1	1	-22	-22	-54	-94	-47	-3394	-22	1	1	-22	-49	-91	-45	-22.8990550067553542135	-48.3484165843527335937	-92.5851781274186862447	-50.1366606708562798644
5.0.14.0	win	042419	19:06:53	001	1	game	3	selection	361	1	91	91	0	slot1	359	359	1	1	1	-22	-22	-54	-94	-47	-3414	-20	1	1	-20	-54	-94	-57	-24.4014945042955204713	-50.9272136374399053693	-90.6483874061189851545	-52.897031522593273678
5.0.14.0	win	042419	19:06:53	001	1	game	3	iti	364	1	91	91	0	0	2000	359	1	1	1	-20	-20	-54	-94	-47	-3414	-20	1	1	-20	-54	-94	-57	-24.4014945042955204713	-50.9272136374399053693	-90.6483874061189851545	-52.897031522593273678
5.0.14.0	win	042419	19:06:53	001	1	game	3	selection	365	1	92	92	0	slot1	429	429	1	1	1	-20	-20	-54	-94	-47	-3439	-25	1	1	-25	-55	-86	-53	-28.2622346322951543129	-51.5258451641702635015	-85.8888543362598113617	-57.8904954497569192995
5.0.14.0	win	042419	19:06:53	001	1	game	3	iti	368	1	92	92	0	0	2000	429	1	1	1	-25	-25	-54	-94	-47	-3439	-25	1	1	-25	-55	-86	-53	-28.2622346322951543129	-51.5258451641702635015	-85.8888543362598113617	-57.8904954497569192995
5.0.14.0	win	042419	19:06:53	001	1	game	3	selection	369	1	93	93	0	slot1	499	499	1	1	1	-25	-25	-54	-94	-47	-3465	-26	1	1	-26	-53	-90	-56	-22.4082673972182071509	-55.6652977735116891722	-89.2932315729825347717	-55.9504300189619669936
5.0.14.0	win	042419	19:06:53	001	1	game	3	iti	372	1	93	93	0	0	2000	499	1	1	1	-26	-26	-54	-94	-47	-3465	-26	1	1	-26	-53	-90	-56	-22.4082673972182071509	-55.6652977735116891722	-89.2932315729825347717	-55.9504300189619669936
5.0.14.0	win	042419	19:06:53	001	1	game	3	selection	373	1	94	94	0	slot1	635	635	1	1	1	-26	-26	-54	-94	-47	-3490	-25	1	1	-25	-58	-85	-52	-24.5404431035273944417	-56.5757139069710461854	-90.2119162717278442187	-53.8383391891142508712
5.0.14.0	win	042419	19:06:53	001	1	game	3	iti	376	1	94	94	0	0	2000	635	1	1	1	-25	-25	-54	-94	-47	-3490	-25	1	1	-25	-58	-85	-52	-24.5404431035273944417	-56.5757139069710461854	-90.2119162717278442187	-53.8383391891142508712
5.0.14.0	win	042419	19:06:53	001	1	game	3	selection	377	1	95	95	0	slot1	538	538	1	1	1	-25	-25	-54	-94	-47	-3501	-11	1	1	-11	-55	-86	-52	-25.2106011136826211327	-55.6774852224282739144	-94.6304418089234076206	-53.2128200664453245849
5.0.14.0	win	042419	19:06:53	001	1	game	3	iti	380	1	95	95	0	0	2000	538	1	1	1	-11	-11	-54	-94	-47	-3501	-11	1	1	-11	-55	-86	-52	-25.2106011136826211327	-55.6774852224282739144	-94.6304418089234076206	-53.2128200664453245849
5.0.14.0	win	042419	19:06:53	001	1	game	3	selection	381	1	96	96	0	slot1	432	432	1	1	1	-11	-11	-54	-94	-47	-3531	-30	1	1	-30	-60	-93	-50	-24.3003887421222941612	-58.1515071908367389142	-95.3765840336950674327	-54.8941362074603489418
5.0.14.0	win	042419	19:06:53	001	1	game	3	iti	384	1	96	96	0	0	2000	432	1	1	1	-30	-30	-54	-94	-47	-3531	-30	1	1	-30	-60	-93	-50	-24.3003887421222941612	-58.1515071908367389142	-95.3765840336950674327	-54.8941362074603489418
5.0.14.0	win	042419	19:06:53	001	1	game	3	selection	385	1	97	97	0	slot1	517	517	1	1	1	-30	-30	-54	-94	-47	-3554	-23	1	1	-23	-67	-97	-57	-23.9752571061042267786	-59.9826739806325974769	-92.799189506415260098	-53.5490082519326620059
5.0.14.0	win	042419	19:06:53	001	1	game	3	iti	388	1	97	97	0	0	2000	517	1	1	1	-23	-23	-54	-94	-47	-3554	-23	1	1	-23	-67	-97	-57	-23.9752571061042267786	-59.9826739806325974769	-92.799189506415260098	-53.5490082519326620059
5.0.14.0	win	042419	19:06:53	001	1	game	3	selection	389	1	98	98	0	slot1	665	665	1	1	1	-23	-23	-54	-94	-47	-3582	-28	1	1	-28	-60	-92	-52	-22.1389127102694303062	-59.1641713235195751963	-91.2387434863075696967	-51.2831667619821658377
5.0.14.0	win	042419	19:06:53	001	1	game	3	iti	392	1	98	98	0	0	2000	665	1	1	1	-28	-28	-54	-94	-47	-3582	-28	1	1	-28	-60	-92	-52	-22.1389127102694303062	-59.1641713235195751963	-91.2387434863075696967	-51.2831667619821658377
5.0.14.0	win	042419	19:06:53	001	1	game	3	selection	393	1	99	99	0	slot1	536	536	1	1	1	-28	-28	-54	-94	-47	-3608	-26	1	1	-26	-54	-94	-51	-23.6117353589896303845	-55.8396309327600235406	-88.6863157043202932073	-50.0935096176066707585
5.0.14.0	win	042419	19:06:53	001	1	game	3	iti	396	1	99	99	0	0	2000	536	1	1	1	-26	-26	-54	-94	-47	-3608	-26	1	1	-26	-54	-94	-51	-23.6117353589896303845	-55.8396309327600235406	-88.6863157043202932073	-50.0935096176066707585
5.0.14.0	win	042419	19:06:53	001	1	game	3	selection	397	1	100	100	0	slot1	600	600	1	1	1	-26	-26	-54	-94	-47	-3634	-26	1	1	-26	-54	-93	-51	-20.8361356578537879614	-53.0976286056539024116	-92.4956159735206711048	-51.479917187413015256
5.0.14.0	win	042419	19:06:53	001	1	game	3	iti	400	1	100	100	0	0	2000	600	1	1	1	-26	-26	-54	-94	-47	-3634	-26	1	1	-26	-54	-93	-51	-20.8361356578537879614	-53.0976286056539024116	-92.4956159735206711048	-51.479917187413015256
5.0.14.0	win	042419	19:06:53	001	1	game	3	selection	401	1	101	101	0	slot1	564	564	1	1	1	-26	-26	-54	-94	-47	-3656	-22	1	1	-22	-52	-87	-57	-23.056424667990999211	-50.4407571728778023612	-89.937261942687428018	-54.3554957825561757545
5.0.14.0	win	042419	19:06:53	001	1	game	3	iti	404	1	101	101	0	0	2000	564	1	1	1	-22	-22	-54	-94	-47	-3656	-22	1	1	-22	-52	-87	-57	-23.056424667990999211	-50.4407571728778023612	-89.937261942687428018	-54.3554957825561757545
5.0.14.0	win	042419	19:06:53	001	1	game	3	selection	405	1	102	102	0	slot4	721	721	4	2	1	-22	-22	-54	-94	-47	-3712	-56	2	1	-21	-39	-93	-56	-23.139526017062991059	-46.6628299082748156934	-94.493296679083186973	-57.0167809826605989088
5.0.14.0	win	042419	19:06:53	001	1	game	3	iti	408	1	102	102	0	0	2000	721	4	2	1	-22	-22	-54	-94	-56	-3712	-56	2	1	-21	-39	-93	-56	-23.139526017062991059	-46.6628299082748156934	-94.493296679083186973	-57.0167809826605989088
5.0.14.0	win	042419	19:06:53	001	1	game	3	selection	409	1	103	103	0	slot2	407	407	2	2	1	-22	-22	-54	-94	-56	-3754	-42	2	1	-17	-42	-97	-58	-19.240182695780248423	-45.0566823829715445981	-96.4998103636982591524	-57.0763724328916097761
5.0.14.0	win	042419	19:06:53	001	1	game	3	iti	412	1	103	103	0	0	2000	407	2	2	1	-22	-22	-42	-94	-56	-3754	-42	2	1	-17	-42	-97	-58	-19.240182695780248423	-45.0566823829715445981	-96.4998103636982591524	-57.0763724328916097761
5.0.14.0	win	042419	19:06:53	001	1	game	3	selection	413	1	104	104	0	slot3	310	310	3	2	1	-22	-22	-42	-94	-56	-3854	-100	2	1	-18	-51	-100	-59	-21.018362947455798917	-48.713226408247493282	-97.403813792226088708	-60.7356746777785687641
5.0.14.0	win	042419	19:06:53	001	1	game	3	iti	416	1	104	104	0	0	2000	310	3	2	1	-22	-22	-42	-100	-56	-3854	-100	2	1	-18	-51	-100	-59	-21.018362947455798917	-48.713226408247493282	-97.403813792226088708	-60.7356746777785687641
5.0.14.0	win	042419	19:06:53	001	1	game	3	selection	417	1	105	105	0	slot1	395	395	1	1	1	-22	-22	-42	-100	-56	-3870	-16	1	1	-16	-45	-93	-60	-19.9431031284050384045	-43.8789802993269333342	-93.2879523786607052216	-62.7551823729168702926
5.0.14.0	win	042419	19:06:53	001	1	game	3	iti	420	1	105	105	0	0	2000	395	1	1	1	-16	-16	-42	-100	-56	-3870	-16	1	1	-16	-45	-93	-60	-19.9431031284050384045	-43.8789802993269333342	-93.2879523786607052216	-62.7551823729168702926
5.0.14.0	win	042419	19:06:53	001	1	game	3	selection	421	1	106	106	0	slot4	232	232	4	2	1	-16	-16	-42	-100	-56	-3940	-70	2	1	-24	-42	-100	-70	-24.358328583604244244	-44.9112695236270766941	-90.9331923753400417354	-63.736760025412486641
5.0.14.0	win	042419	19:06:53	001	1	game	3	iti	424	1	106	106	0	0	2000	232	4	2	1	-16	-16	-42	-100	-70	-3940	-70	2	1	-24	-42	-100	-70	-24.358328583604244244	-44.9112695236270766941	-90.9331923753400417354	-63.736760025412486641
5.0.14.0	win	042419	19:06:53	001	1	game	3	selection	425	1	107	107	0	slot2	386	386	2	2	1	-16	-16	-42	-100	-70	-3986	-46	2	1	-32	-46	-97	-63	-28.383660851066451869	-45.4125416447296359479	-92.6412461244768223878	-65.834056039586840825
5.0.14.0	win	042419	19:06:53	001	1	game	3	iti	428	1	107	107	0	0	2000	386	2	2	1	-16	-16	-46	-100	-70	-3986	-46	2	1	-32	-46	-97	-63	-28.383660851066451869	-45.4125416447296359479	-92.6412461244768223878	-65.834056039586840825
5.0.14.0	win	042419	19:06:53	001	1	game	3	selection	429	1	108	108	0	slot1	219	219	1	1	1	-16	-16	-46	-100	-70	-4011	-25	1	1	-25	-42	-91	-61	-27.6203362749078671357	-43.2585630566743404302	-91.7844874452500363304	-64.0689745345132024568
5.0.14.0	win	042419	19:06:53	001	1	game	3	iti	432	1	108	108	0	0	2000	219	1	1	1	-25	-25	-46	-100	-70	-4011	-25	1	1	-25	-42	-91	-61	-27.6203362749078671357	-43.2585630566743404302	-91.7844874452500363304	-64.0689745345132024568
5.0.14.0	win	042419	19:06:53	001	1	game	3	selection	433	1	109	109	0	slot1	343	343	1	1	1	-25	-25	-46	-100	-70	-4038	-27	1	1	-27	-39	-93	-54	-27.8918306782154807877	-37.2094436437928663963	-92.849121886174614815	-57.9462528693197995722
5.0.14.0	win	042419	19:06:53	001	1	game	3	iti	436	1	109	109	0	0	2000	343	1	1	1	-27	-27	-46	-100	-70	-4038	-27	1	1	-27	-39	-93	-54	-27.8918306782154807877	-37.2094436437928663963	-92.849121886174614815	-57.9462528693197995722
5.0.14.0	win	042419	19:06:53	001	1	game	3	selection	437	1	110	110	0	slot1	525	525	1	1	1	-27	-27	-46	-100	-70	-4069	-31	1	1	-31	-42	-100	-62	-27.2377547638694927912	-41.9011987995269237217	-96.0305698553848969823	-60.2358792679712493623
5.0.14.0	win	042419	19:06:53	001	1	game	3	iti	440	1	110	110	0	0	2000	525	1	1	1	-31	-31	-46	-100	-70	-4069	-31	1	1	-31	-42	-100	-62	-27.2377547638694927912	-41.9011987995269237217	-96.0305698553848969823	-60.2358792679712493623
5.0.14.0	win	042419	19:06:53	001	1	game	3	selection	441	1	111	111	0	slot1	420	420	1	1	1	-31	-31	-46	-100	-70	-4095	-26	1	1	-26	-44	-98	-59	-24.025496338800731877	-44.7150591428306896091	-98.4823927222773249923	-61.2634533061369808138
5.0.14.0	win	042419	19:06:53	001	1	game	3	iti	444	1	111	111	0	0	2000	420	1	1	1	-26	-26	-46	-100	-70	-4095	-26	1	1	-26	-44	-98	-59	-24.025496338800731877	-44.7150591428306896091	-98.4823927222773249923	-61.2634533061369808138
5.0.14.0	win	042419	19:06:53	001	1	game	3	selection	445	1	112	112	0	slot1	268	268	1	1	1	-26	-26	-46	-100	-70	-4120	-25	1	1	-25	-44	-100	-57	-21.8441559301630832124	-40.6508371803494057417	-101.7739348773363872169	-57.4712450751330194976
5.0.14.0	win	042419	19:06:53	001	1	game	3	iti	448	1	112	112	0	0	2000	268	1	1	1	-25	-25	-46	-100	-70	-4120	-25	1	1	-25	-44	-100	-57	-21.8441559301630832124	-40.6508371803494057417	-101.7739348773363872169	-57.4712450751330194976
5.0.14.0	win	042419	19:06:53	001	1	game	3	selection	449	1	113	113	0	slot1	243	243	1	1	1	-25	-25	-46	-100	-70	-4143	-23	1	1	-23	-42	-100	-59	-23.5177186833580087466	-41.9915817547722127756	-103.1107592626486564313	-59.948323312647453065
5.0.14.0	win	042419	19:06:53	001	1	game	3	iti	452	1	113	113	0	0	2000	243	1	1	1	-23	-23	-46	-100	-70	-4143	-23	1	1	-23	-42	-100	-59	-23.5177186833580087466	-41.9915817547722127756	-103.1107592626486564313	-59.948323312647453065
5.0.14.0	win	042419	19:06:53	001	1	game	3	selection	453	1	114	114	0	slot1	579	579	1	1	1	-23	-23	-46	-100	-70	-4171	-28	1	1	-28	-39	-100	-57	-27.2296594598891807948	-40.655817959745647272	-105.1559813313374007748	-57.908622106833917087
5.0.14.0	win	042419	19:06:53	001	1	game	3	iti	456	1	114	114	0	0	2000	579	1	1	1	-28	-28	-46	-100	-70	-4171	-28	1	1	-28	-39	-100	-57	-27.2296594598891807948	-40.655817959745647272	-105.1559813313374007748	-57.908622106833917087
5.0.14.0	win	042419	19:06:53	001	1	game	3	selection	457	1	115	115	0	slot1	429	429	1	1	1	-28	-28	-46	-100	-70	-4200	-29	1	1	-29	-48	-95	-68	-28.3816058709127823079	-41.8509038486866913331	-100.6441186987644726969	-61.7350731383928703622
5.0.14.0	win	042419	19:06:53	001	1	game	3	iti	460	1	115	115	0	0	2000	429	1	1	1	-29	-29	-46	-100	-70	-4200	-29	1	1	-29	-48	-95	-68	-28.3816058709127823079	-41.8509038486866913331	-100.6441186987644726969	-61.7350731383928703622
5.0.14.0	win	042419	19:06:53	001	1	game	3	selection	461	1	116	116	0	slot1	230	230	1	1	1	-29	-29	-46	-100	-70	-4229	-29	1	1	-29	-42	-100	-63	-28.1342507461391733159	-39.9685226961423865077	-97.3319394699882991517	-61.6284824651848950339
5.0.14.0	win	042419	19:06:53	001	1	game	3	iti	464	1	116	116	0	0	2000	230	1	1	1	-29	-29	-46	-100	-70	-4229	-29	1	1	-29	-42	-100	-63	-28.1342507461391733159	-39.9685226961423865077	-97.3319394699882991517	-61.6284824651848950339
5.0.14.0	win	042419	19:06:53	001	1	game	3	selection	465	1	117	117	0	slot1	263	263	1	1	1	-29	-29	-46	-100	-70	-4260	-31	1	1	-31	-40	-90	-57	-26.0455945663080186137	-39.9807359775807924507	-97.562044810784271931	-61.7796915912409474458
5.0.14.0	win	042419	19:06:53	001	1	game	3	iti	468	1	117	117	0	0	2000	263	1	1	1	-31	-31	-46	-100	-70	-4260	-31	1	1	-31	-40	-90	-57	-26.0455945663080186137	-39.9807359775807924507	-97.562044810784271931	-61.7796915912409474458
5.0.14.0	win	042419	19:06:53	001	1	game	3	selection	469	1	118	118	0	slot1	213	213	1	1	1	-31	-31	-46	-100	-70	-4286	-26	1	1	-26	-49	-90	-59	-28.5380233188234520014	-42.3271625687591139808	-97.09842109725312298	-62.8295945208791408731
5.0.14.0	win	042419	19:06:53	001	1	game	3	iti	472	1	118	118	0	0	2000	213	1	1	1	-26	-26	-46	-100	-70	-4286	-26	1	1	-26	-49	-90	-59	-28.5380233188234520014	-42.3271625687591139808	-97.09842109725312298	-62.8295945208791408731
5.0.14.0	win	042419	19:06:53	001	1	game	3	selection	473	1	119	119	0	slot4	568	568	4	2	1	-26	-26	-46	-100	-70	-4342	-56	2	1	-24	-46	-94	-56	-29.5647403332651919072	-41.3134175879795435549	-96.088735062215647531	-66.2039166988485305865
5.0.14.0	win	042419	19:06:53	001	1	game	3	iti	476	1	119	119	0	0	2000	568	4	2	1	-26	-26	-46	-100	-56	-4342	-56	2	1	-24	-46	-94	-56	-29.5647403332651919072	-41.3134175879795435549	-96.088735062215647531	-66.2039166988485305865
5.0.14.0	win	042419	19:06:53	001	1	game	3	selection	477	1	120	120	0	slot2	177	177	2	2	1	-26	-26	-46	-100	-56	-4379	-37	2	1	-27	-37	-97	-58	-29.6497233757495060047	-40.2332393435676110016	-96.6097206987211194473	-62.0426908930201150838
5.0.14.0	win	042419	19:06:53	001	1	game	3	iti	480	1	120	120	0	0	2000	177	2	2	1	-26	-26	-37	-100	-56	-4379	-37	2	1	-27	-37	-97	-58	-29.6497233757495060047	-40.2332393435676110016	-96.6097206987211194473	-62.0426908930201150838
5.0.14.0	win	042419	19:06:53	001	1	game	3	selection	481	1	121	121	0	slot1	122	122	1	1	1	-26	-26	-37	-100	-56	-4412	-33	1	1	-33	-39	-90	-59	-29.7924589474843308778	-41.8733157823469284153	-94.138843732068764325	-60.5152582166446748602
5.0.14.0	win	042419	19:06:53	001	1	game	3	iti	484	1	121	121	0	0	2000	122	1	1	1	-33	-33	-37	-100	-56	-4412	-33	1	1	-33	-39	-90	-59	-29.7924589474843308778	-41.8733157823469284153	-94.138843732068764325	-60.5152582166446748602
5.0.14.0	win	042419	19:06:53	001	1	game	3	selection	485	1	122	122	0	slot1	484	484	1	1	1	-33	-33	-37	-100	-56	-4440	-28	1	1	-28	-47	-87	-64	-30.4285405897217735571	-45.5144709875697728307	-91.1756434725645448225	-61.5032876353125814717
5.0.14.0	win	042419	19:06:53	001	1	game	3	iti	488	1	122	122	0	0	2000	484	1	1	1	-28	-28	-37	-100	-56	-4440	-28	1	1	-28	-47	-87	-64	-30.4285405897217735571	-45.5144709875697728307	-91.1756434725645448225	-61.5032876353125814717
5.0.14.0	win	042419	19:06:53	001	1	game	3	selection	489	1	123	123	0	slot1	533	533	1	1	1	-28	-28	-37	-100	-56	-4460	-20	1	1	-20	-46	-89	-66	-27.3604709066697182607	-48.4356079513828632344	-87.586717092234337656	-64.8063023300072700295
5.0.14.0	win	042419	19:06:53	001	1	game	3	iti	492	1	123	123	0	0	2000	533	1	1	1	-20	-20	-37	-100	-56	-4460	-20	1	1	-20	-46	-89	-66	-27.3604709066697182607	-48.4356079513828632344	-87.586717092234337656	-64.8063023300072700295
5.0.14.0	win	042419	19:06:53	001	1	game	3	selection	493	1	124	124	0	slot2	816	816	2	2	1	-20	-20	-37	-100	-56	-4507	-47	2	1	-26	-47	-90	-64	-29.0281859510135902269	-43.9430099823081974364	-85.2605256237242912221	-68.1821442976171141481
5.0.14.0	win	042419	19:06:53	001	1	game	3	iti	496	1	124	124	0	0	2000	816	2	2	1	-20	-20	-47	-100	-56	-4507	-47	2	1	-26	-47	-90	-64	-29.0281859510135902269	-43.9430099823081974364	-85.2605256237242912221	-68.1821442976171141481
5.0.14.0	win	042419	19:06:53	001	1	game	3	selection	497	1	125	125	0	slot4	657	657	4	2	1	-20	-20	-47	-100	-56	-4570	-63	2	1	-27	-42	-90	-63	-27.9879572317254066149	-45.7834008676648664959	-83.8602629815740101549	-64.4495788944601599724
5.0.14.0	win	042419	19:06:53	001	1	game	3	iti	500	1	125	125	0	0	2000	657	4	2	1	-20	-20	-47	-100	-63	-4570	-63	2	1	-27	-42	-90	-63	-27.9879572317254066149	-45.7834008676648664959	-83.8602629815740101549	-64.4495788944601599724
5.0.14.0	win	042419	19:06:53	001	1	game	3	selection	501	1	126	126	0	slot1	352	352	1	1	1	-20	-20	-47	-100	-63	-4594	-24	1	1	-24	-39	-77	-67	-26.6966716277022300119	-45.1252957929930929026	-87.2854262964559666216	-68.1573625514597978281
5.0.14.0	win	042419	19:06:53	001	1	game	3	iti	504	1	126	126	0	0	2000	352	1	1	1	-24	-24	-47	-100	-63	-4594	-24	1	1	-24	-39	-77	-67	-26.6966716277022300119	-45.1252957929930929026	-87.2854262964559666216	-68.1573625514597978281
5.0.14.0	win	042419	19:06:53	001	1	game	3	selection	505	1	127	127	0	slot1	499	499	1	1	1	-24	-24	-47	-100	-63	-4611	-17	1	1	-17	-39	-74	-64	-24.5523966004603089175	-46.4894799903331374935	-82.8968035714474211773	-63.3088031168998526255
5.0.14.0	win	042419	19:06:53	001	1	game	3	iti	508	1	127	127	0	0	2000	499	1	1	1	-17	-17	-47	-100	-63	-4611	-17	1	1	-17	-39	-74	-64	-24.5523966004603089175	-46.4894799903331374935	-82.8968035714474211773	-63.3088031168998526255
5.0.14.0	win	042419	19:06:53	001	1	game	3	selection	509	1	128	128	0	slot2	227	227	2	2	1	-17	-17	-47	-100	-63	-4661	-50	2	1	-19	-50	-83	-55	-24.5208376145689790349	-47.3034598846649174675	-87.2159128716695732919	-59.7630911483209459334
5.0.14.0	win	042419	19:06:53	001	1	game	3	iti	512	1	128	128	0	0	2000	227	2	2	1	-17	-17	-50	-100	-63	-4661	-50	2	1	-19	-50	-83	-55	-24.5208376145689790349	-47.3034598846649174675	-87.2159128716695732919	-59.7630911483209459334
5.0.14.0	win	042419	19:06:53	001	1	game	3	selection	513	1	129	129	0	slot3	368	368	3	2	1	-17	-17	-50	-100	-63	-4754	-93	2	1	-38	-44	-93	-57	-27.194014974089018466	-44.0779152136705150156	-90.2531251237463010284	-60.3106512311267408677
5.0.14.0	win	042419	19:06:53	001	1	game	3	iti	516	1	129	129	0	0	2000	368	3	2	1	-17	-17	-50	-93	-63	-4754	-93	2	1	-38	-44	-93	-57	-27.194014974089018466	-44.0779152136705150156	-90.2531251237463010284	-60.3106512311267408677
5.0.14.0	win	042419	19:06:53	001	1	game	3	selection	517	1	130	130	0	slot1	466	466	1	1	1	-17	-17	-50	-93	-63	-4783	-29	1	1	-29	-49	-92	-63	-30.2991933998284714846	-48.7559934785080884012	-86.2660775557167198713	-62.1388585611660602126
5.0.14.0	win	042419	19:06:53	001	1	game	3	iti	520	1	130	130	0	0	2000	466	1	1	1	-29	-29	-50	-93	-63	-4783	-29	1	1	-29	-49	-92	-63	-30.2991933998284714846	-48.7559934785080884012	-86.2660775557167198713	-62.1388585611660602126
5.0.14.0	win	042419	19:06:53	001	1	game	3	selection	521	1	131	131	0	slot1	607	607	1	1	1	-29	-29	-50	-93	-63	-4825	-42	1	1	-42	-50	-82	-62	-35.8300414965452702631	-49.3211118335423961412	-79.2051263784525900746	-59.8883680527854309616
5.0.14.0	win	042419	19:06:53	001	1	game	3	iti	524	1	131	131	0	0	2000	607	1	1	1	-42	-42	-50	-93	-63	-4825	-42	1	1	-42	-50	-82	-62	-35.8300414965452702631	-49.3211118335423961412	-79.2051263784525900746	-59.8883680527854309616
5.0.14.0	win	042419	19:06:53	001	1	game	3	selection	525	1	132	132	0	slot1	556	556	1	1	1	-42	-42	-50	-93	-63	-4860	-35	1	1	-35	-53	-75	-65	-35.4154309359383887568	-48.2152823202712852435	-79.0358773672812446875	-61.0196861556150835781
5.0.14.0	win	042419	19:06:53	001	1	game	3	iti	528	1	132	132	0	0	2000	556	1	1	1	-35	-35	-50	-93	-63	-4860	-35	1	1	-35	-53	-75	-65	-35.4154309359383887568	-48.2152823202712852435	-79.0358773672812446875	-61.0196861556150835781
5.0.14.0	win	042419	19:06:53	001	1	game	3	selection	529	1	133	133	0	slot1	856	856	1	1	1	-35	-35	-50	-93	-63	-4902	-42	1	1	-42	-53	-80	-63	-37.4773446037245747675	-51.3315989841237296787	-76.359502809777225707	-60.0773520681569763724
5.0.14.0	win	042419	19:06:53	001	1	game	3	iti	532	1	133	133	0	0	2000	856	1	1	1	-42	-42	-50	-93	-63	-4902	-42	1	1	-42	-53	-80	-63	-37.4773446037245747675	-51.3315989841237296787	-76.359502809777225707	-60.0773520681569763724
5.0.14.0	win	042419	19:06:53	001	1	game	3	selection	533	1	134	134	0	slot1	415	415	1	1	1	-42	-42	-50	-93	-63	-4943	-41	1	1	-41	-47	-74	-62	-39.8227134881867073091	-47.5527344741851862864	-74.224420814979566785	-58.7747154630243713314
5.0.14.0	win	042419	19:06:53	001	1	game	3	iti	536	1	134	134	0	0	2000	415	1	1	1	-41	-41	-50	-93	-63	-4943	-41	1	1	-41	-47	-74	-62	-39.8227134881867073091	-47.5527344741851862864	-74.224420814979566785	-58.7747154630243713314
5.0.14.0	win	042419	19:06:53	001	1	game	3	selection	537	1	135	135	0	slot1	455	455	1	1	1	-41	-41	-50	-93	-63	-4981	-38	1	1	-38	-48	-73	-54	-39.9572737938706765704	-49.3449134215329650033	-71.6567673135395608597	-59.7023261332996497686
5.0.14.0	win	042419	19:06:53	001	1	game	3	iti	540	1	135	135	0	0	2000	455	1	1	1	-38	-38	-50	-93	-63	-4981	-38	1	1	-38	-48	-73	-54	-39.9572737938706765704	-49.3449134215329650033	-71.6567673135395608597	-59.7023261332996497686
5.0.14.0	win	042419	19:06:53	001	1	game	3	selection	541	1	136	136	0	slot1	535	535	1	1	1	-38	-38	-50	-93	-63	-5021	-40	1	1	-40	-45	-73	-58	-38.5775807176317400149	-48.066427350335423796	-73.9520813363874225388	-53.3547235563300574768
5.0.14.0	win	042419	19:06:53	001	1	game	3	iti	544	1	136	136	0	0	2000	535	1	1	1	-40	-40	-50	-93	-63	-5021	-40	1	1	-40	-45	-73	-58	-38.5775807176317400149	-48.066427350335423796	-73.9520813363874225388	-53.3547235563300574768
5.0.14.0	win	042419	19:06:53	001	1	game	3	selection	545	1	137	137	0	slot2	386	386	2	2	1	-40	-40	-50	-93	-63	-5072	-51	2	1	-39	-51	-78	-54	-46.1970913087770256311	-49.9607894778715007078	-75.689381695844758724	-56.6497180694024180525
5.0.14.0	win	042419	19:06:53	001	1	game	3	iti	548	1	137	137	0	0	2000	386	2	2	1	-40	-40	-51	-93	-63	-5072	-51	2	1	-39	-51	-78	-54	-46.1970913087770256311	-49.9607894778715007078	-75.689381695844758724	-56.6497180694024180525
5.0.14.0	win	042419	19:06:53	001	1	game	3	selection	549	1	138	138	0	slot4	470	470	4	2	1	-40	-40	-51	-93	-63	-5125	-53	2	1	-39	-51	-81	-53	-42.0520132371136199367	-51.1307728194511099673	-76.0533068633643267731	-57.2515665437706289254
5.0.14.0	win	042419	19:06:53	001	1	game	3	iti	552	1	138	138	0	0	2000	470	4	2	1	-40	-40	-51	-93	-53	-5125	-53	2	1	-39	-51	-81	-53	-42.0520132371136199367	-51.1307728194511099673	-76.0533068633643267731	-57.2515665437706289254
5.0.14.0	win	042419	19:06:53	001	1	game	3	selection	553	1	139	139	0	slot1	314	314	1	1	1	-40	-40	-51	-93	-53	-5165	-40	1	1	-40	-50	-76	-58	-42.9219860693805514984	-46.2520357785860909416	-77.3163921488592080777	-57.9438566250613433795
5.0.14.0	win	042419	19:06:53	001	1	game	3	iti	556	1	139	139	0	0	2000	314	1	1	1	-40	-40	-51	-93	-53	-5165	-40	1	1	-40	-50	-76	-58	-42.9219860693805514984	-46.2520357785860909416	-77.3163921488592080777	-57.9438566250613433795
5.0.14.0	win	042419	19:06:53	001	1	game	3	selection	557	1	140	140	0	slot1	516	516	1	1	1	-40	-40	-51	-93	-53	-5207	-42	1	1	-42	-44	-80	-66	-46.0670506887366784099	-39.8919230146238774637	-77.4028897874579513427	-63.206637956852624427
5.0.14.0	win	042419	19:06:53	001	1	game	3	iti	560	1	140	140	0	0	2000	516	1	1	1	-42	-42	-51	-93	-53	-5207	-42	1	1	-42	-44	-80	-66	-46.0670506887366784099	-39.8919230146238774637	-77.4028897874579513427	-63.206637956852624427
5.0.14.0	win	042419	19:06:53	001	1	game	3	selection	561	1	141	141	0	slot1	594	594	1	1	1	-42	-42	-51	-93	-53	-5252	-45	2	2	-45	-39	-77	-62	-48.7973101800247377469	-41.8165145026991780242	-80.6938262564989940984	-66.5647029230979683234
5.0.14.0	win	042419	19:06:53	001	1	game	3	iti	564	1	141	141	0	0	2000	594	1	1	1	-45	-45	-51	-93	-53	-5252	-45	2	2	-45	-39	-77	-62	-48.7973101800247377469	-41.8165145026991780242	-80.6938262564989940984	-66.5647029230979683234
5.0.14.0	win	042419	19:06:53	001	1	game	3	selection	565	1	142	142	0	slot2	189	189	2	2	1	-45	-45	-51	-93	-53	-5292	-40	1	2	-46	-40	-77	-70	-48.560562728197858462	-42.6013315903254081718	-75.6589078704131168251	-70.4800222320695723965
5.0.14.0	win	042419	19:06:53	001	1	game	3	iti	568	1	142	142	0	0	2000	189	2	2	2	-40	-45	-40	-93	-53	-5292	-40	1	2	-46	-40	-77	-70	-48.560562728197858462	-42.6013315903254081718	-75.6589078704131168251	-70.4800222320695723965
5.0.14.0	win	042419	19:06:53	001	1	game	3	selection	569	1	143	143	0	slot4	449	449	4	2	2	-40	-45	-40	-93	-53	-5363	-71	2	2	-56	-42	-75	-71	-48.4949989165511752276	-44.524827078852467821	-74.1400435853419850218	-69.0717025382836595782
5.0.14.0	win	042419	19:06:53	001	1	game	3	iti	572	1	143	143	0	0	2000	449	4	2	2	-40	-45	-40	-93	-71	-5363	-71	2	2	-56	-42	-75	-71	-48.4949989165511752276	-44.524827078852467821	-74.1400435853419850218	-69.0717025382836595782
5.0.14.0	win	042419	19:06:53	001	1	game	3	selection	573	1	144	144	0	slot3	787	787	3	2	2	-40	-45	-40	-93	-71	-5446	-83	2	1	-44	-46	-83	-61	-52.2550726433707311003	-48.8452725947794448302	-76.5355596812522946948	-66.4889477796602790249
5.0.14.0	win	042419	19:06:53	001	1	game	3	iti	576	1	144	144	0	0	2000	787	3	2	2	-40	-45	-40	-83	-71	-5446	-83	2	1	-44	-46	-83	-61	-52.2550726433707311003	-48.8452725947794448302	-76.5355596812522946948	-66.4889477796602790249
5.0.14.0	win	042419	19:06:53	001	1	game	3	selection	577	1	145	145	0	slot2	352	352	2	1	2	-40	-45	-40	-83	-71	-5500	-54	2	1	-51	-54	-69	-65	-53.34404890832544055	-52.4050134698990959237	-74.5652471296706238491	-62.6799379856987215476
5.0.14.0	win	042419	19:06:53	001	1	game	3	iti	580	1	145	145	0	0	2000	352	2	1	1	-45	-45	-54	-83	-71	-5500	-54	2	1	-51	-54	-69	-65	-53.34404890832544055	-52.4050134698990959237	-74.5652471296706238491	-62.6799379856987215476
5.0.14.0	win	042419	19:06:53	001	1	game	3	selection	581	1	146	146	0	slot1	326	326	1	1	1	-45	-45	-54	-83	-71	-5558	-58	2	2	-58	-53	-72	-63	-52.862353277766658266	-47.1933276714574390098	-75.0179556439484400698	-65.0628041472406266621
5.0.14.0	win	042419	19:06:53	001	1	game	3	iti	584	1	146	146	0	0	2000	326	1	1	2	-54	-58	-54	-83	-71	-5558	-58	2	2	-58	-53	-72	-63	-52.862353277766658266	-47.1933276714574390098	-75.0179556439484400698	-65.0628041472406266621
5.0.14.0	win	042419	19:06:53	001	1	game	3	selection	585	1	147	147	0	slot1	392	392	1	2	2	-54	-58	-54	-83	-71	-5616	-58	2	2	-58	-48	-69	-65	-59.8028562233773612888	-48.4468902528945548625	-74.7858539986892481011	-63.8576535821140112148
5.0.14.0	win	042419	19:06:53	001	1	game	3	iti	588	1	147	147	0	0	2000	392	1	2	2	-54	-58	-54	-83	-71	-5616	-58	2	2	-58	-48	-69	-65	-59.8028562233773612888	-48.4468902528945548625	-74.7858539986892481011	-63.8576535821140112148
5.0.14.0	win	042419	19:06:53	001	1	game	3	selection	589	1	148	148	0	slot1	226	226	1	2	2	-54	-58	-54	-83	-71	-5683	-67	2	2	-67	-47	-75	-62	-59.3346980650136757163	-49.0750421432722347959	-75.9419447262021805045	-63.9009962736157532959
5.0.14.0	win	042419	19:06:53	001	1	game	3	iti	592	1	148	148	0	0	2000	226	1	2	2	-54	-67	-54	-83	-71	-5683	-67	2	2	-67	-47	-75	-62	-59.3346980650136757163	-49.0750421432722347959	-75.9419447262021805045	-63.9009962736157532959
5.0.14.0	win	042419	19:06:53	001	1	game	3	selection	593	1	149	149	0	slot2	125	125	2	1	2	-54	-67	-54	-83	-71	-5734	-51	1	2	-60	-51	-77	-61	-58.5216522615535552632	-46.4056689934064721115	-76.2472370752270620642	-63.599281307557241405
5.0.14.0	win	042419	19:06:53	001	1	game	3	iti	596	1	149	149	0	0	2000	125	2	1	2	-51	-67	-51	-83	-71	-5734	-51	1	2	-60	-51	-77	-61	-58.5216522615535552632	-46.4056689934064721115	-76.2472370752270620642	-63.599281307557241405
5.0.14.0	win	042419	19:06:53	001	1	game	3	selection	597	1	150	150	0	slot2	390	390	2	1	2	-51	-67	-51	-83	-71	-5781	-47	1	2	-57	-47	-76	-67	-61.1025011426359370148	-49.52318002287444898	-79.6468998316795051551	-64.3707087567273390505
5.0.14.0	win	042419	19:06:53	001	1	game	3	iti	600	1	150	150	0	0	2000	390	2	1	2	-47	-67	-47	-83	-71	-5781	-47	1	2	-57	-47	-76	-67	-61.1025011426359370148	-49.52318002287444898	-79.6468998316795051551	-64.3707087567273390505
