build	computer.platform	date	time	subject	group	blockcode	blocknum	trialcode	trialnum	values.countRounds	values.TotaltrialCount	values.trialCount_perRound	values.noResponseCount	response	latency	values.selectionRT	values.selectedSlot	values.choice	values.currenthighestSeenPayOffSlot	values.currenthighestSeenPayOff	values.lastSeenPayOff1	values.lastSeenPayOff2	values.lastSeenPayOff3	values.lastSeenPayOff4	values.total	values.currentPayoff	values.highestPayOffSelected	values.currentHighestPayOffSlot	values.payOff1	values.payOff2	values.payOff3	values.payOff4	values.mean1	values.mean2	values.mean3	values.mean4
5.0.14.0	win	042419	22:25:31	002	1	demo	1	selection	2	0	1	1	0	slot4	598	598	4	2	0	0	0	0	0	0	-44	-44	2	2	-28	-16	-17	-44	-30.4762008893556668454	-7.9666445208008109802	-22.0082911049978164897	-41.1760464784424300433
5.0.14.0	win	042419	22:25:31	002	1	demo	1	iti	5	0	1	1	0	0	2000	598	4	2	1	0	0	0	0	-44	-44	-44	2	2	-28	-16	-17	-44	-30.4762008893556668454	-7.9666445208008109802	-22.0082911049978164897	-41.1760464784424300433
5.0.14.0	win	042419	22:25:31	002	1	demo	1	selection	6	0	2	2	0	slot1	469	469	1	1	1	0	0	0	0	-44	-67	-23	2	2	-23	-13	-24	-43	-30.9755118526664467993	-13.5513331542170440969	-21.6654034054399353693	-38.2945503666188997727
5.0.14.0	win	042419	22:25:31	002	1	demo	1	iti	9	0	2	2	0	0	2000	469	1	1	2	0	-23	0	0	-44	-67	-23	2	2	-23	-13	-24	-43	-30.9755118526664467993	-13.5513331542170440969	-21.6654034054399353693	-38.2945503666188997727
5.0.14.0	win	042419	22:25:31	002	1	demo	1	selection	10	0	3	3	0	slot2	1222	1222	2	1	2	0	-23	0	0	-44	-83	-16	1	2	-35	-16	-21	-44	-33.3973933946016572349	-13.656678477054020604	-20.4507542914300906034	-41.6464647537134453614
5.0.14.0	win	042419	22:25:31	002	1	demo	1	iti	13	0	3	3	0	0	2000	1222	2	1	3	0	-23	-16	0	-44	-83	-16	1	2	-35	-16	-21	-44	-33.3973933946016572349	-13.656678477054020604	-20.4507542914300906034	-41.6464647537134453614
5.0.14.0	win	042419	22:25:31	002	1	demo	1	selection	14	0	4	4	0	slot3	671	671	3	1	3	0	-23	-16	0	-44	-98	-15	2	2	-34	-14	-15	-29	-34.5196027649466969933	-10.3157388055961014572	-22.6366977303474570249	-35.664904453929182182
5.0.14.0	win	042419	22:25:31	002	1	demo	1	iti	17	0	4	4	0	0	2000	671	3	1	3	-15	-23	-16	-15	-44	-98	-15	2	2	-34	-14	-15	-29	-34.5196027649466969933	-10.3157388055961014572	-22.6366977303474570249	-35.664904453929182182
5.0.14.0	win	042419	22:25:31	002	1	demo	1	selection	18	0	5	5	0	slot3	522	522	3	1	3	-15	-23	-16	-15	-44	-128	-30	2	2	-40	-17	-30	-36	-38.8078285594995193719	-13.2034647655416890188	-24.9417216298621333692	-37.11794534117579758
5.0.14.0	win	042419	22:25:31	002	1	demo	1	iti	21	0	5	5	0	0	2000	522	3	1	2	-16	-23	-16	-30	-44	-128	-30	2	2	-40	-17	-30	-36	-38.8078285594995193719	-13.2034647655416890188	-24.9417216298621333692	-37.11794534117579758
5.0.14.0	win	042419	22:25:31	002	1	game	3	selection	1	1	1	1	0	slot4	734	734	4	2	0	0	0	0	0	0	-18	-18	1	4	-88	-49	-45	-18	-80.7545952590887168299	-52.0352131206564649801	-38.1824552269580621555	-21.953384891468218143
5.0.14.0	win	042419	22:25:31	002	1	game	3	iti	4	1	1	1	0	0	2000	734	4	2	1	0	0	0	0	-18	-18	-18	1	4	-88	-49	-45	-18	-80.7545952590887168299	-52.0352131206564649801	-38.1824552269580621555	-21.953384891468218143
5.0.14.0	win	042419	22:25:31	002	1	game	3	selection	5	1	2	2	0	slot1	355	355	1	1	1	0	0	0	0	-18	-99	-81	2	4	-81	-53	-29	-18	-79.5446121161020158752	-54.979672544920049404	-35.1824473847859593434	-21.1533755663643461276
5.0.14.0	win	042419	22:25:31	002	1	game	3	iti	8	1	2	2	0	0	2000	355	1	1	2	0	-81	0	0	-18	-99	-81	2	4	-81	-53	-29	-18	-79.5446121161020158752	-54.979672544920049404	-35.1824473847859593434	-21.1533755663643461276
5.0.14.0	win	042419	22:25:31	002	1	game	3	selection	9	1	3	3	0	slot3	937	937	3	2	2	0	-81	0	0	-18	-134	-35	2	4	-79	-49	-35	-24	-77.0663129833645399458	-54.7082000359587894422	-32.1728824362032952422	-23.220277377189603385
5.0.14.0	win	042419	22:25:31	002	1	game	3	iti	12	1	3	3	0	0	2000	937	3	2	2	0	-81	0	-35	-18	-134	-35	2	4	-79	-49	-35	-24	-77.0663129833645399458	-54.7082000359587894422	-32.1728824362032952422	-23.220277377189603385
5.0.14.0	win	042419	22:25:31	002	1	game	3	selection	13	1	4	4	0	slot2	805	805	2	1	2	0	-81	0	-35	-18	-186	-52	2	3	-80	-52	-28	-31	-74.8152158658291597249	-49.6325567836776286867	-30.1685089989161809854	-25.7120068300174509091
5.0.14.0	win	042419	22:25:31	002	1	game	3	iti	16	1	4	4	0	0	2000	805	2	1	4	-18	-81	-52	-35	-18	-186	-52	2	3	-80	-52	-28	-31	-74.8152158658291597249	-49.6325567836776286867	-30.1685089989161809854	-25.7120068300174509091
5.0.14.0	win	042419	22:25:31	002	1	game	3	selection	17	1	5	5	0	slot4	388	388	4	1	4	-18	-81	-52	-35	-18	-217	-31	1	4	-77	-54	-33	-31	-77.6815687526249973871	-50.0757460585258371566	-32.4069853795148432596	-26.3866637627432467639
5.0.14.0	win	042419	22:25:31	002	1	game	3	iti	20	1	5	5	0	0	2000	388	4	1	4	-31	-81	-52	-35	-31	-217	-31	1	4	-77	-54	-33	-31	-77.6815687526249973871	-50.0757460585258371566	-32.4069853795148432596	-26.3866637627432467639
5.0.14.0	win	042419	22:25:31	002	1	game	3	selection	21	1	6	6	0	slot4	890	890	4	1	4	-31	-81	-52	-35	-31	-248	-31	2	3	-79	-45	-29	-31	-75.4566173715031283109	-43.1859346614347288096	-34.3898686092144245663	-28.2943230446213043194
5.0.14.0	win	042419	22:25:31	002	1	game	3	iti	24	1	6	6	0	0	2000	890	4	1	4	-31	-81	-52	-35	-31	-248	-31	2	3	-79	-45	-29	-31	-75.4566173715031283109	-43.1859346614347288096	-34.3898686092144245663	-28.2943230446213043194
5.0.14.0	win	042419	22:25:31	002	1	game	3	selection	25	1	7	7	0	slot4	641	641	4	1	4	-31	-81	-52	-35	-31	-275	-27	1	4	-73	-46	-38	-27	-75.6141366950303108752	-43.3114095772839746701	-36.3028928660152487851	-26.9802061640428370026
5.0.14.0	win	042419	22:25:31	002	1	game	3	iti	28	1	7	7	0	0	2000	641	4	1	4	-27	-81	-52	-35	-27	-275	-27	1	4	-73	-46	-38	-27	-75.6141366950303108752	-43.3114095772839746701	-36.3028928660152487851	-26.9802061640428370026
5.0.14.0	win	042419	22:25:31	002	1	game	3	selection	29	1	8	8	0	slot4	454	454	4	1	4	-27	-81	-52	-35	-27	-299	-24	1	4	-76	-39	-38	-24	-77.2233086604806686637	-45.0007291887064653224	-36.8591010107709422527	-25.0327856855755932486
5.0.14.0	win	042419	22:25:31	002	1	game	3	iti	32	1	8	8	0	0	2000	454	4	1	4	-24	-81	-52	-35	-24	-299	-24	1	4	-76	-39	-38	-24	-77.2233086604806686637	-45.0007291887064653224	-36.8591010107709422527	-25.0327856855755932486
5.0.14.0	win	042419	22:25:31	002	1	game	3	selection	33	1	9	9	0	slot4	409	409	4	1	4	-24	-81	-52	-35	-24	-327	-28	1	4	-64	-45	-32	-28	-73.9041767363402470892	-40.5900256985965057765	-36.3581913480216201151	-23.6472592044170859538
5.0.14.0	win	042419	22:25:31	002	1	game	3	iti	36	1	9	9	0	0	2000	409	4	1	4	-28	-81	-52	-35	-28	-327	-28	1	4	-64	-45	-32	-28	-73.9041767363402470892	-40.5900256985965057765	-36.3581913480216201151	-23.6472592044170859538
5.0.14.0	win	042419	22:25:31	002	1	game	3	selection	37	1	10	10	0	slot3	1059	1059	3	2	4	-28	-81	-52	-35	-28	-360	-33	2	4	-70	-39	-33	-28	-70.7108213796954601094	-39.2611981684907931367	-35.4468547967399203458	-24.8306641063968029925
5.0.14.0	win	042419	22:25:31	002	1	game	3	iti	40	1	10	10	0	0	2000	1059	3	2	4	-28	-81	-52	-33	-28	-360	-33	2	4	-70	-39	-33	-28	-70.7108213796954601094	-39.2611981684907931367	-35.4468547967399203458	-24.8306641063968029925
5.0.14.0	win	042419	22:25:31	002	1	game	3	selection	41	1	11	11	0	slot4	985	985	4	1	4	-28	-81	-52	-33	-28	-382	-22	1	4	-75	-35	-36	-22	-71.3101378376593828534	-39.9397943250231435286	-40.2862876232421740497	-24.8656440776113498714
5.0.14.0	win	042419	22:25:31	002	1	game	3	iti	44	1	11	11	0	0	2000	985	4	1	4	-22	-81	-52	-33	-22	-382	-22	1	4	-75	-35	-36	-22	-71.3101378376593828534	-39.9397943250231435286	-40.2862876232421740497	-24.8656440776113498714
5.0.14.0	win	042419	22:25:31	002	1	game	3	selection	45	1	12	12	0	slot4	485	485	4	1	4	-22	-81	-52	-33	-22	-403	-21	1	4	-68	-44	-30	-21	-70.3061009051325527253	-42.3561619866904663922	-35.9491917055737033593	-24.6432990058757326324
5.0.14.0	win	042419	22:25:31	002	1	game	3	iti	48	1	12	12	0	0	2000	485	4	1	4	-21	-81	-52	-33	-21	-403	-21	1	4	-68	-44	-30	-21	-70.3061009051325527253	-42.3561619866904663922	-35.9491917055737033593	-24.6432990058757326324
5.0.14.0	win	042419	22:25:31	002	1	game	3	selection	49	1	13	13	0	slot1	558	558	1	2	4	-21	-81	-52	-33	-21	-476	-73	2	4	-73	-40	-36	-29	-72.4667952721529218252	-42.7245058136555968531	-33.7401230653806436521	-25.3897387537739689378
5.0.14.0	win	042419	22:25:31	002	1	game	3	iti	52	1	13	13	0	0	2000	558	1	2	4	-21	-73	-52	-33	-21	-476	-73	2	4	-73	-40	-36	-29	-72.4667952721529218252	-42.7245058136555968531	-33.7401230653806436521	-25.3897387537739689378
5.0.14.0	win	042419	22:25:31	002	1	game	3	selection	53	1	14	14	0	slot1	552	552	1	2	4	-21	-73	-52	-33	-21	-552	-76	2	4	-76	-45	-30	-27	-77.3842533914395005468	-42.8184033957876053478	-29.7819667546405355552	-26.8177673268285872155
5.0.14.0	win	042419	22:25:31	002	1	game	3	iti	56	1	14	14	0	0	2000	552	1	2	4	-21	-76	-52	-33	-21	-552	-76	2	4	-76	-45	-30	-27	-77.3842533914395005468	-42.8184033957876053478	-29.7819667546405355552	-26.8177673268285872155
5.0.14.0	win	042419	22:25:31	002	1	game	3	selection	57	1	15	15	0	slot1	418	418	1	2	4	-21	-76	-52	-33	-21	-634	-82	2	3	-82	-40	-28	-29	-76.3632977027757533506	-39.7972568753597784053	-29.5610077582193824242	-25.4964627216225849793
5.0.14.0	win	042419	22:25:31	002	1	game	3	iti	60	1	15	15	0	0	2000	418	1	2	4	-21	-82	-52	-33	-21	-634	-82	2	3	-82	-40	-28	-29	-76.3632977027757533506	-39.7972568753597784053	-29.5610077582193824242	-25.4964627216225849793
5.0.14.0	win	042419	22:25:31	002	1	game	3	selection	61	1	16	16	0	slot1	480	480	1	2	4	-21	-82	-52	-33	-21	-722	-88	2	3	-88	-50	-31	-32	-77.0848900675582626718	-44.5338436172823861625	-30.5305769162562086194	-29.2447099590339405495
5.0.14.0	win	042419	22:25:31	002	1	game	3	iti	64	1	16	16	0	0	2000	480	1	2	4	-21	-88	-52	-33	-21	-722	-88	2	3	-88	-50	-31	-32	-77.0848900675582626718	-44.5338436172823861625	-30.5305769162562086194	-29.2447099590339405495
5.0.14.0	win	042419	22:25:31	002	1	game	3	selection	65	1	17	17	0	slot2	945	945	2	2	4	-21	-88	-52	-33	-21	-770	-48	2	3	-77	-48	-28	-33	-74.9491682442037756573	-43.2711048683189574149	-28.4827754016523151392	-28.1935853382384173926
5.0.14.0	win	042419	22:25:31	002	1	game	3	iti	68	1	17	17	0	0	2000	945	2	2	4	-21	-88	-48	-33	-21	-770	-48	2	3	-77	-48	-28	-33	-74.9491682442037756573	-43.2711048683189574149	-28.4827754016523151392	-28.1935853382384173926
5.0.14.0	win	042419	22:25:31	002	1	game	3	selection	69	1	18	18	0	slot1	801	801	1	2	4	-21	-88	-48	-33	-21	-848	-78	2	3	-78	-41	-18	-25	-77.5068105772210316218	-43.374591568184115431	-26.2777186734924654843	-27.7991933222678433424
5.0.14.0	win	042419	22:25:31	002	1	game	3	iti	72	1	18	18	0	0	2000	801	1	2	4	-21	-78	-48	-33	-21	-848	-78	2	3	-78	-41	-18	-25	-77.5068105772210316218	-43.374591568184115431	-26.2777186734924654843	-27.7991933222678433424
5.0.14.0	win	042419	22:25:31	002	1	game	3	selection	73	1	19	19	0	slot1	537	537	1	2	4	-21	-78	-48	-33	-21	-925	-77	2	3	-77	-47	-29	-34	-79.346726770788151839	-43.2390661485548690735	-25.2885697975373986424	-31.6398500568856384518
5.0.14.0	win	042419	22:25:31	002	1	game	3	iti	76	1	19	19	0	0	2000	537	1	2	4	-21	-77	-48	-33	-21	-925	-77	2	3	-77	-47	-29	-34	-79.346726770788151839	-43.2390661485548690735	-25.2885697975373986424	-31.6398500568856384518
5.0.14.0	win	042419	22:25:31	002	1	game	3	selection	77	1	20	20	0	slot1	436	436	1	2	4	-21	-77	-48	-33	-21	-1000	-75	2	3	-75	-39	-24	-26	-75.7990672725870524573	-42.6406416046424752153	-23.2755870058422438262	-32.5063624217859228338
5.0.14.0	win	042419	22:25:31	002	1	game	3	iti	80	1	20	20	0	0	2000	436	1	2	4	-21	-75	-48	-33	-21	-1000	-75	2	3	-75	-39	-24	-26	-75.7990672725870524573	-42.6406416046424752153	-23.2755870058422438262	-32.5063624217859228338
5.0.14.0	win	042419	22:25:31	002	1	game	3	selection	81	1	21	21	0	slot1	467	467	1	2	4	-21	-75	-48	-33	-21	-1084	-84	2	3	-84	-40	-20	-45	-75.5327118567178388275	-44.3186107837225478079	-22.2083426152788980801	-36.1658277668188077314
5.0.14.0	win	042419	22:25:31	002	1	game	3	iti	84	1	21	21	0	0	2000	467	1	2	4	-21	-84	-48	-33	-21	-1084	-84	2	3	-84	-40	-20	-45	-75.5327118567178388275	-44.3186107837225478079	-22.2083426152788980801	-36.1658277668188077314
5.0.14.0	win	042419	22:25:31	002	1	game	3	selection	85	1	22	22	0	slot1	544	544	1	2	4	-21	-84	-48	-33	-21	-1159	-75	2	3	-75	-54	-25	-33	-76.9734413004620989796	-47.9333633030275549913	-24.2126175182111644801	-37.2913217450253497987
5.0.14.0	win	042419	22:25:31	002	1	game	3	iti	88	1	22	22	0	0	2000	544	1	2	4	-21	-75	-48	-33	-21	-1159	-75	2	3	-75	-54	-25	-33	-76.9734413004620989796	-47.9333633030275549913	-24.2126175182111644801	-37.2913217450253497987
5.0.14.0	win	042419	22:25:31	002	1	game	3	selection	89	1	23	23	0	slot1	394	394	1	2	4	-21	-75	-48	-33	-21	-1233	-74	2	3	-74	-42	-32	-35	-75.1210476735050889374	-48.8473690046297477352	-30.8668578959471666678	-38.0790874504913432474
5.0.14.0	win	042419	22:25:31	002	1	game	3	iti	92	1	23	23	0	0	2000	394	1	2	4	-21	-74	-48	-33	-21	-1233	-74	2	3	-74	-42	-32	-35	-75.1210476735050889374	-48.8473690046297477352	-30.8668578959471666678	-38.0790874504913432474
5.0.14.0	win	042419	22:25:31	002	1	game	3	selection	93	1	24	24	0	slot1	734	734	1	2	4	-21	-74	-48	-33	-21	-1307	-74	2	3	-74	-49	-32	-47	-74.7401796602245127588	-47.62229334887473442	-34.0733382702073654968	-44.5951279216323825949
5.0.14.0	win	042419	22:25:31	002	1	game	3	iti	96	1	24	24	0	0	2000	734	1	2	4	-21	-74	-48	-33	-21	-1307	-74	2	3	-74	-49	-32	-47	-74.7401796602245127588	-47.62229334887473442	-34.0733382702073654968	-44.5951279216323825949
5.0.14.0	win	042419	22:25:31	002	1	game	3	selection	97	1	25	25	0	slot1	557	557	1	2	4	-21	-74	-48	-33	-21	-1382	-75	2	3	-75	-44	-33	-43	-75.8373647192582609478	-51.0340105539957633596	-33.2856763970015947507	-43.7809027590190780188
5.0.14.0	win	042419	22:25:31	002	1	game	3	iti	100	1	25	25	0	0	2000	557	1	2	4	-21	-75	-48	-33	-21	-1382	-75	2	3	-75	-44	-33	-43	-75.8373647192582609478	-51.0340105539957633596	-33.2856763970015947507	-43.7809027590190780188
5.0.14.0	win	042419	22:25:31	002	1	game	3	selection	101	1	26	26	0	slot1	765	765	1	2	4	-21	-75	-48	-33	-21	-1464	-82	2	3	-82	-40	-32	-43	-78.5437326950002443482	-44.2629328696651427322	-35.6168308553784456194	-39.5385374821894330921
5.0.14.0	win	042419	22:25:31	002	1	game	3	iti	104	1	26	26	0	0	2000	765	1	2	4	-21	-82	-48	-33	-21	-1464	-82	2	3	-82	-40	-32	-43	-78.5437326950002443482	-44.2629328696651427322	-35.6168308553784456194	-39.5385374821894330921
5.0.14.0	win	042419	22:25:31	002	1	game	3	selection	105	1	27	27	0	slot1	498	498	1	2	4	-21	-82	-48	-33	-21	-1539	-75	2	3	-75	-39	-28	-41	-72.7561751978191466605	-43.0860787075519837686	-34.0683807835633274408	-38.6410235949744631512
5.0.14.0	win	042419	22:25:31	002	1	game	3	iti	108	1	27	27	0	0	2000	498	1	2	4	-21	-75	-48	-33	-21	-1539	-75	2	3	-75	-39	-28	-41	-72.7561751978191466605	-43.0860787075519837686	-34.0683807835633274408	-38.6410235949744631512
5.0.14.0	win	042419	22:25:31	002	1	game	3	selection	109	1	28	28	0	slot1	643	643	1	2	4	-21	-75	-48	-33	-21	-1601	-62	2	4	-62	-46	-38	-36	-63.4898022850048775467	-38.9205649406632403497	-35.7214296775745907553	-34.8548086894314437245
5.0.14.0	win	042419	22:25:31	002	1	game	3	iti	112	1	28	28	0	0	2000	643	1	2	4	-21	-62	-48	-33	-21	-1601	-62	2	4	-62	-46	-38	-36	-63.4898022850048775467	-38.9205649406632403497	-35.7214296775745907553	-34.8548086894314437245
5.0.14.0	win	042419	22:25:31	002	1	game	3	selection	113	1	29	29	0	slot1	641	641	1	2	4	-21	-62	-48	-33	-21	-1669	-68	2	4	-68	-35	-29	-24	-70.4347910273256445635	-36.9146697565293990806	-37.0064807651311156178	-33.7747641241436582504
5.0.14.0	win	042419	22:25:31	002	1	game	3	iti	116	1	29	29	0	0	2000	641	1	2	4	-21	-68	-48	-33	-21	-1669	-68	2	4	-68	-35	-29	-24	-70.4347910273256445635	-36.9146697565293990806	-37.0064807651311156178	-33.7747641241436582504
5.0.14.0	win	042419	22:25:31	002	1	game	3	selection	117	1	30	30	0	slot1	700	700	1	2	4	-21	-68	-48	-33	-21	-1738	-69	2	4	-69	-31	-37	-25	-68.6101243288442219637	-39.4064786235101678358	-37.7119837347143445072	-34.150302527606179126
5.0.14.0	win	042419	22:25:31	002	1	game	3	iti	120	1	30	30	0	0	2000	700	1	2	4	-21	-69	-48	-33	-21	-1738	-69	2	4	-69	-31	-37	-25	-68.6101243288442219637	-39.4064786235101678358	-37.7119837347143445072	-34.150302527606179126
5.0.14.0	win	042419	22:25:31	002	1	game	3	selection	121	1	31	31	0	slot1	669	669	1	2	4	-21	-69	-48	-33	-21	-1802	-64	2	3	-64	-35	-34	-39	-62.0715555614003307028	-33.1716140869311999495	-37.1746726223169616787	-34.7409942896949033297
5.0.14.0	win	042419	22:25:31	002	1	game	3	iti	124	1	31	31	0	0	2000	669	1	2	4	-21	-64	-48	-33	-21	-1802	-64	2	3	-64	-35	-34	-39	-62.0715555614003307028	-33.1716140869311999495	-37.1746726223169616787	-34.7409942896949033297
5.0.14.0	win	042419	22:25:31	002	1	game	3	selection	125	1	32	32	0	slot1	620	620	1	2	4	-21	-64	-48	-33	-21	-1873	-71	2	2	-71	-21	-26	-43	-63.7160900995297581062	-30.1068660208445386672	-35.0661389576661193246	-35.6841750100780572552
5.0.14.0	win	042419	22:25:31	002	1	game	3	iti	128	1	32	32	0	0	2000	620	1	2	4	-21	-71	-48	-33	-21	-1873	-71	2	2	-71	-21	-26	-43	-63.7160900995297581062	-30.1068660208445386672	-35.0661389576661193246	-35.6841750100780572552
5.0.14.0	win	042419	22:25:31	002	1	game	3	selection	129	1	33	33	0	slot1	387	387	1	2	4	-21	-71	-48	-33	-21	-1936	-63	2	2	-63	-24	-40	-37	-66.3869839362471907407	-26.2379237532553801771	-38.2990924408650315058	-32.6350117726566395504
5.0.14.0	win	042419	22:25:31	002	1	game	3	iti	132	1	33	33	0	0	2000	387	1	2	4	-21	-63	-48	-33	-21	-1936	-63	2	2	-63	-24	-40	-37	-66.3869839362471907407	-26.2379237532553801771	-38.2990924408650315058	-32.6350117726566395504
5.0.14.0	win	042419	22:25:31	002	1	game	3	selection	133	1	34	34	0	slot1	803	803	1	2	4	-21	-63	-48	-33	-21	-2000	-64	2	2	-64	-24	-40	-32	-67.2931091028019636724	-26.3862927474548918383	-40.8456040192221863094	-31.2313615643793731635
5.0.14.0	win	042419	22:25:31	002	1	game	3	iti	136	1	34	34	0	0	2000	803	1	2	4	-21	-64	-48	-33	-21	-2000	-64	2	2	-64	-24	-40	-32	-67.2931091028019636724	-26.3862927474548918383	-40.8456040192221863094	-31.2313615643793731635
5.0.14.0	win	042419	22:25:31	002	1	game	3	selection	137	1	35	35	0	slot1	720	720	1	2	4	-21	-64	-48	-33	-21	-2067	-67	2	3	-67	-36	-35	-37	-67.7081040027039051665	-27.7500941205195879036	-37.8658372707246897448	-33.7661184387911816884
5.0.14.0	win	042419	22:25:31	002	1	game	3	iti	140	1	35	35	0	0	2000	720	1	2	4	-21	-67	-48	-33	-21	-2067	-67	2	3	-67	-36	-35	-37	-67.7081040027039051665	-27.7500941205195879036	-37.8658372707246897448	-33.7661184387911816884
5.0.14.0	win	042419	22:25:31	002	1	game	3	selection	141	1	36	36	0	slot1	624	624	1	2	4	-21	-67	-48	-33	-21	-2131	-64	2	2	-64	-25	-41	-31	-65.0935372395365874354	-24.80199719345566578	-38.5012758098476410851	-30.4458197326790980242
5.0.14.0	win	042419	22:25:31	002	1	game	3	iti	144	1	36	36	0	0	2000	624	1	2	4	-21	-64	-48	-33	-21	-2131	-64	2	2	-64	-25	-41	-31	-65.0935372395365874354	-24.80199719345566578	-38.5012758098476410851	-30.4458197326790980242
5.0.14.0	win	042419	22:25:31	002	1	game	3	selection	145	1	37	37	0	slot1	439	439	1	2	4	-21	-64	-48	-33	-21	-2190	-59	2	2	-59	-25	-35	-28	-62.6236762379921785282	-23.674463952437953651	-40.2413083346083553238	-28.6921067836502601267
5.0.14.0	win	042419	22:25:31	002	1	game	3	iti	148	1	37	37	0	0	2000	439	1	2	4	-21	-59	-48	-33	-21	-2190	-59	2	2	-59	-25	-35	-28	-62.6236762379921785282	-23.674463952437953651	-40.2413083346083553238	-28.6921067836502601267
5.0.14.0	win	042419	22:25:31	002	1	game	3	selection	149	1	38	38	0	slot4	924	924	4	1	4	-21	-59	-48	-33	-21	-2216	-26	2	2	-71	-25	-32	-26	-64.1036011474455449388	-22.2306453713784435422	-41.4162436005812608641	-25.6698746009881340058
5.0.14.0	win	042419	22:25:31	002	1	game	3	iti	152	1	38	38	0	0	2000	924	4	1	4	-26	-59	-48	-33	-26	-2216	-26	2	2	-71	-25	-32	-26	-64.1036011474455449388	-22.2306453713784435422	-41.4162436005812608641	-25.6698746009881340058
5.0.14.0	win	042419	22:25:31	002	1	game	3	selection	153	1	39	39	0	slot1	373	373	1	2	4	-26	-59	-48	-33	-26	-2278	-62	2	2	-62	-18	-48	-28	-62.9480068785403545917	-21.0015122211094649174	-46.4239864303364200282	-27.8301654010980747955
5.0.14.0	win	042419	22:25:31	002	1	game	3	iti	156	1	39	39	0	0	2000	373	1	2	4	-26	-62	-48	-33	-26	-2278	-62	2	2	-62	-18	-48	-28	-62.9480068785403545917	-21.0015122211094649174	-46.4239864303364200282	-27.8301654010980747955
5.0.14.0	win	042419	22:25:31	002	1	game	3	selection	157	1	40	40	0	slot1	480	480	1	2	4	-26	-62	-48	-33	-26	-2348	-70	2	2	-70	-11	-43	-29	-60.9332173434000665679	-19.4944257984296704933	-40.9472393900805329281	-31.8933453539010756117
5.0.14.0	win	042419	22:25:31	002	1	game	3	iti	160	1	40	40	0	0	2000	480	1	2	4	-26	-70	-48	-33	-26	-2348	-70	2	2	-70	-11	-43	-29	-60.9332173434000665679	-19.4944257984296704933	-40.9472393900805329281	-31.8933453539010756117
5.0.14.0	win	042419	22:25:31	002	1	game	3	selection	161	1	41	41	0	slot1	745	745	1	2	4	-26	-70	-48	-33	-26	-2408	-60	2	2	-60	-19	-38	-26	-60.6222497689178254632	-21.7962925408413852324	-38.4008186371972186635	-30.7426167244496575393
5.0.14.0	win	042419	22:25:31	002	1	game	3	iti	164	1	41	41	0	0	2000	745	1	2	4	-26	-60	-48	-33	-26	-2408	-60	2	2	-60	-19	-38	-26	-60.6222497689178254632	-21.7962925408413852324	-38.4008186371972186635	-30.7426167244496575393
5.0.14.0	win	042419	22:25:31	002	1	game	3	selection	165	1	42	42	0	slot1	410	410	1	2	4	-26	-60	-48	-33	-26	-2477	-69	2	2	-69	-29	-33	-35	-64.2757492577499220943	-25.247071186662594755	-37.5933534727822831201	-36.9228551171147429955
5.0.14.0	win	042419	22:25:31	002	1	game	3	iti	168	1	42	42	0	0	2000	410	1	2	4	-26	-69	-48	-33	-26	-2477	-69	2	2	-69	-29	-33	-35	-64.2757492577499220943	-25.247071186662594755	-37.5933534727822831201	-36.9228551171147429955
5.0.14.0	win	042419	22:25:31	002	1	game	3	selection	169	1	43	43	0	slot1	515	515	1	2	4	-26	-69	-48	-33	-26	-2538	-61	2	2	-61	-28	-42	-39	-61.1934359974429469275	-25.4765949045958706165	-32.5066947343525001202	-39.1653804464722199441
5.0.14.0	win	042419	22:25:31	002	1	game	3	iti	172	1	43	43	0	0	2000	515	1	2	4	-26	-61	-48	-33	-26	-2538	-61	2	2	-61	-28	-42	-39	-61.1934359974429469275	-25.4765949045958706165	-32.5066947343525001202	-39.1653804464722199441
5.0.14.0	win	042419	22:25:31	002	1	game	3	selection	173	1	44	44	0	slot1	635	635	1	2	4	-26	-61	-48	-33	-26	-2607	-69	2	2	-69	-24	-36	-38	-64.115652706463563959	-27.8619950592814333845	-33.9070401368362794869	-41.4277143614460854337
5.0.14.0	win	042419	22:25:31	002	1	game	3	iti	176	1	44	44	0	0	2000	635	1	2	4	-26	-69	-48	-33	-26	-2607	-69	2	2	-69	-24	-36	-38	-64.115652706463563959	-27.8619950592814333845	-33.9070401368362794869	-41.4277143614460854337
5.0.14.0	win	042419	22:25:31	002	1	game	3	selection	177	1	45	45	0	slot1	504	504	1	2	4	-26	-69	-48	-33	-26	-2669	-62	2	2	-62	-27	-30	-44	-64.6360669517301431597	-26.695290925324158593	-30.0572925525832985727	-44.9305802775995530851
5.0.14.0	win	042419	22:25:31	002	1	game	3	iti	180	1	45	45	0	0	2000	504	1	2	4	-26	-62	-48	-33	-26	-2669	-62	2	2	-62	-27	-30	-44	-64.6360669517301431597	-26.695290925324158593	-30.0572925525832985727	-44.9305802775995530851
5.0.14.0	win	042419	22:25:31	002	1	game	3	selection	181	1	46	46	0	slot1	546	546	1	2	4	-26	-62	-48	-33	-26	-2742	-73	2	2	-73	-27	-28	-37	-71.8910391293616868325	-30.5278126315545286218	-28.392104329243544214	-44.5407560841236218607
5.0.14.0	win	042419	22:25:31	002	1	game	3	iti	184	1	46	46	0	0	2000	546	1	2	4	-26	-73	-48	-33	-26	-2742	-73	2	2	-73	-27	-28	-37	-71.8910391293616868325	-30.5278126315545286218	-28.392104329243544214	-44.5407560841236218607
5.0.14.0	win	042419	22:25:31	002	1	game	3	selection	185	1	47	47	0	slot1	407	407	1	2	4	-26	-73	-48	-33	-26	-2817	-75	2	2	-75	-26	-39	-43	-72.90950435168647914	-28.1822882677635995208	-32.249929022446366389	-43.6744274951770350413
5.0.14.0	win	042419	22:25:31	002	1	game	3	iti	188	1	47	47	0	0	2000	407	1	2	4	-26	-75	-48	-33	-26	-2817	-75	2	2	-75	-26	-39	-43	-72.90950435168647914	-28.1822882677635995208	-32.249929022446366389	-43.6744274951770350413
5.0.14.0	win	042419	22:25:31	002	1	game	3	selection	189	1	48	48	0	slot1	562	562	1	2	4	-26	-75	-48	-33	-26	-2884	-67	2	2	-67	-27	-32	-43	-70.7660002669279180054	-27.3422376094545889202	-32.0653770524554602162	-43.5225279667444411302
5.0.14.0	win	042419	22:25:31	002	1	game	3	iti	192	1	48	48	0	0	2000	562	1	2	4	-26	-67	-48	-33	-26	-2884	-67	2	2	-67	-27	-32	-43	-70.7660002669279180054	-27.3422376094545889202	-32.0653770524554602162	-43.5225279667444411302
5.0.14.0	win	042419	22:25:31	002	1	game	3	selection	193	1	49	49	0	slot1	460	460	1	2	4	-26	-67	-48	-33	-26	-2956	-72	2	2	-72	-23	-29	-50	-74.1079824849465893521	-24.0029188421471282311	-28.3855103943953182011	-45.9070077530538327437
5.0.14.0	win	042419	22:25:31	002	1	game	3	iti	196	1	49	49	0	0	2000	460	1	2	4	-26	-72	-48	-33	-26	-2956	-72	2	2	-72	-23	-29	-50	-74.1079824849465893521	-24.0029188421471282311	-28.3855103943953182011	-45.9070077530538327437
5.0.14.0	win	042419	22:25:31	002	1	game	3	selection	197	1	50	50	0	slot1	418	418	1	2	4	-26	-72	-48	-33	-26	-3026	-70	2	3	-70	-31	-25	-45	-72.3627187270238749761	-27.4967866302332524242	-25.5446179480063833012	-49.1136663343108779145
5.0.14.0	win	042419	22:25:31	002	1	game	3	iti	200	1	50	50	0	0	2000	418	1	2	4	-26	-70	-48	-33	-26	-3026	-70	2	3	-70	-31	-25	-45	-72.3627187270238749761	-27.4967866302332524242	-25.5446179480063833012	-49.1136663343108779145
5.0.14.0	win	042419	22:25:31	002	1	game	3	selection	201	1	51	51	0	slot1	663	663	1	2	4	-26	-70	-48	-33	-26	-3098	-72	2	2	-72	-25	-29	-51	-68.3576914537448345754	-23.8460560959792395863	-23.8390436021776750408	-49.8127809365315101786
5.0.14.0	win	042419	22:25:31	002	1	game	3	iti	204	1	51	51	0	0	2000	663	1	2	4	-26	-72	-48	-33	-26	-3098	-72	2	2	-72	-25	-29	-51	-68.3576914537448345754	-23.8460560959792395863	-23.8390436021776750408	-49.8127809365315101786
5.0.14.0	win	042419	22:25:31	002	1	game	3	selection	205	1	52	52	0	slot1	485	485	1	2	4	-26	-72	-48	-33	-26	-3151	-53	2	3	-53	-23	-13	-43	-60.3211688875635871909	-22.820903623250533343	-23.234591862860224154	-48.434239871057322091
5.0.14.0	win	042419	22:25:31	002	1	game	3	iti	208	1	52	52	0	0	2000	485	1	2	4	-26	-53	-48	-33	-26	-3151	-53	2	3	-53	-23	-13	-43	-60.3211688875635871909	-22.820903623250533343	-23.234591862860224154	-48.434239871057322091
5.0.14.0	win	042419	22:25:31	002	1	game	3	selection	209	1	53	53	0	slot1	612	612	1	2	4	-26	-53	-48	-33	-26	-3214	-63	2	2	-63	-24	-25	-45	-60.707737305811477313	-26.4532226417889901882	-22.4227291388776741599	-45.4797881566913346774
5.0.14.0	win	042419	22:25:31	002	1	game	3	iti	212	1	53	53	0	0	2000	612	1	2	4	-26	-63	-48	-33	-26	-3214	-63	2	2	-63	-24	-25	-45	-60.707737305811477313	-26.4532226417889901882	-22.4227291388776741599	-45.4797881566913346774
5.0.14.0	win	042419	22:25:31	002	1	game	3	selection	213	1	54	54	0	slot2	1076	1076	2	2	4	-26	-63	-48	-33	-26	-3248	-34	2	3	-63	-34	-22	-37	-65.0734496412078300409	-30.8014319848508790756	-25.8865004766355397692	-40.1230205119021192672
5.0.14.0	win	042419	22:25:31	002	1	game	3	iti	216	1	54	54	0	0	2000	1076	2	2	4	-26	-63	-34	-33	-26	-3248	-34	2	3	-63	-34	-22	-37	-65.0734496412078300409	-30.8014319848508790756	-25.8865004766355397692	-40.1230205119021192672
5.0.14.0	win	042419	22:25:31	002	1	game	3	selection	217	1	55	55	0	slot3	837	837	3	2	4	-26	-63	-34	-33	-26	-3277	-29	1	3	-66	-33	-29	-36	-64.0744427824452031928	-32.7099803879335055967	-31.3917030929102409686	-38.7410687105659903295
5.0.14.0	win	042419	22:25:31	002	1	game	3	iti	220	1	55	55	0	0	2000	837	3	2	4	-26	-63	-34	-29	-26	-3277	-29	1	3	-66	-33	-29	-36	-64.0744427824452031928	-32.7099803879335055967	-31.3917030929102409686	-38.7410687105659903295
5.0.14.0	win	042419	22:25:31	002	1	game	3	selection	221	1	56	56	0	slot1	379	379	1	2	4	-26	-63	-34	-29	-26	-3348	-71	2	3	-71	-26	-23	-39	-65.7732148852486488977	-31.4298485752749598987	-24.7145449325231538751	-40.7299401410716157557
5.0.14.0	win	042419	22:25:31	002	1	game	3	iti	224	1	56	56	0	0	2000	379	1	2	4	-26	-71	-34	-29	-26	-3348	-71	2	3	-71	-26	-23	-39	-65.7732148852486488977	-31.4298485752749598987	-24.7145449325231538751	-40.7299401410716157557
5.0.14.0	win	042419	22:25:31	002	1	game	3	selection	225	1	57	57	0	slot1	447	447	1	2	4	-26	-71	-34	-29	-26	-3417	-69	2	3	-69	-34	-25	-43	-65.8583853504108844845	-27.7120211839466534798	-25.007257265352883735	-41.3942349522314998467
5.0.14.0	win	042419	22:25:31	002	1	game	3	iti	228	1	57	57	0	0	2000	447	1	2	4	-26	-69	-34	-29	-26	-3417	-69	2	3	-69	-34	-25	-43	-65.8583853504108844845	-27.7120211839466534798	-25.007257265352883735	-41.3942349522314998467
5.0.14.0	win	042419	22:25:31	002	1	game	3	selection	229	1	58	58	0	slot1	374	374	1	2	4	-26	-69	-34	-29	-26	-3485	-68	2	3	-68	-31	-25	-44	-67.2409690214385875606	-24.8407111631720027844	-27.3571571472536128056	-41.55070647842615017
5.0.14.0	win	042419	22:25:31	002	1	game	3	iti	232	1	58	58	0	0	2000	374	1	2	4	-26	-68	-34	-29	-26	-3485	-68	2	3	-68	-31	-25	-44	-67.2409690214385875606	-24.8407111631720027844	-27.3571571472536128056	-41.55070647842615017
5.0.14.0	win	042419	22:25:31	002	1	game	3	selection	233	1	59	59	0	slot1	555	555	1	2	4	-26	-68	-34	-29	-26	-3543	-58	2	2	-58	-15	-22	-42	-60.1290456012150187348	-22.6481788650190303258	-28.2346194912993730952	-41.7269070119382803341
5.0.14.0	win	042419	22:25:31	002	1	game	3	iti	236	1	59	59	0	0	2000	555	1	2	4	-26	-58	-34	-29	-26	-3543	-58	2	2	-58	-15	-22	-42	-60.1290456012150187348	-22.6481788650190303258	-28.2346194912993730952	-41.7269070119382803341
5.0.14.0	win	042419	22:25:31	002	1	game	3	selection	237	1	60	60	0	slot1	434	434	1	2	4	-26	-58	-34	-29	-26	-3599	-56	2	3	-56	-25	-18	-32	-56.7859784991217964034	-23.480130274284160663	-27.2458353633010510464	-38.2466720054338509271
5.0.14.0	win	042419	22:25:31	002	1	game	3	iti	240	1	60	60	0	0	2000	434	1	2	4	-26	-56	-34	-29	-26	-3599	-56	2	3	-56	-25	-18	-32	-56.7859784991217964034	-23.480130274284160663	-27.2458353633010510464	-38.2466720054338509271
5.0.14.0	win	042419	22:25:31	002	1	game	3	selection	241	1	61	61	0	slot1	339	339	1	2	4	-26	-56	-34	-29	-26	-3654	-55	2	2	-55	-31	-34	-37	-56.2883249999605936864	-24.0832249097953479122	-31.0495259167865107486	-42.5214488289354335393
5.0.14.0	win	042419	22:25:31	002	1	game	3	iti	244	1	61	61	0	0	2000	339	1	2	4	-26	-55	-34	-29	-26	-3654	-55	2	2	-55	-31	-34	-37	-56.2883249999605936864	-24.0832249097953479122	-31.0495259167865107486	-42.5214488289354335393
5.0.14.0	win	042419	22:25:31	002	1	game	3	selection	245	1	62	62	0	slot1	1012	1012	1	2	4	-26	-55	-34	-29	-26	-3717	-63	2	2	-63	-31	-34	-46	-58.64298226031280592	-24.5821569783338951254	-37.2309513928803994531	-51.4144036387253819953
5.0.14.0	win	042419	22:25:31	002	1	game	3	iti	248	1	62	62	0	0	2000	1012	1	2	4	-26	-63	-34	-29	-26	-3717	-63	2	2	-63	-31	-34	-46	-58.64298226031280592	-24.5821569783338951254	-37.2309513928803994531	-51.4144036387253819953
5.0.14.0	win	042419	22:25:31	002	1	game	3	selection	249	1	63	63	0	slot1	488	488	1	2	4	-26	-63	-34	-29	-26	-3777	-60	2	2	-60	-19	-43	-48	-61.4761404441453294112	-23.4599850328975669811	-39.2433233423743459412	-45.3123016613037776779
5.0.14.0	win	042419	22:25:31	002	1	game	3	iti	252	1	63	63	0	0	2000	488	1	2	4	-26	-60	-34	-29	-26	-3777	-60	2	2	-60	-19	-43	-48	-61.4761404441453294112	-23.4599850328975669811	-39.2433233423743459412	-45.3123016613037776779
5.0.14.0	win	042419	22:25:31	002	1	game	3	selection	253	1	64	64	0	slot1	400	400	1	2	4	-26	-60	-34	-29	-26	-3837	-60	2	2	-60	-25	-32	-53	-64.3264759381923170167	-21.9067152047446356278	-37.5989156143369385177	-49.2674362478570415647
5.0.14.0	win	042419	22:25:31	002	1	game	3	iti	256	1	64	64	0	0	2000	400	1	2	4	-26	-60	-34	-29	-26	-3837	-60	2	2	-60	-25	-32	-53	-64.3264759381923170167	-21.9067152047446356278	-37.5989156143369385177	-49.2674362478570415647
5.0.14.0	win	042419	22:25:31	002	1	game	3	selection	257	1	65	65	0	slot1	330	330	1	2	4	-26	-60	-34	-29	-26	-3896	-59	2	2	-59	-15	-37	-52	-65.4430277114166614183	-22.6129725727377675071	-39.1794360596031339128	-48.017229265056059262
5.0.14.0	win	042419	22:25:31	002	1	game	3	iti	260	1	65	65	0	0	2000	330	1	2	4	-26	-59	-34	-29	-26	-3896	-59	2	2	-59	-15	-37	-52	-65.4430277114166614183	-22.6129725727377675071	-39.1794360596031339128	-48.017229265056059262
5.0.14.0	win	042419	22:25:31	002	1	game	3	selection	261	1	66	66	0	slot1	452	452	1	2	4	-26	-59	-34	-29	-26	-3959	-63	2	2	-63	-23	-31	-43	-64.3500852940517091838	-22.3744488329842212693	-34.9157316140397284698	-46.2014528409023910172
5.0.14.0	win	042419	22:25:31	002	1	game	3	iti	264	1	66	66	0	0	2000	452	1	2	4	-26	-63	-34	-29	-26	-3959	-63	2	2	-63	-23	-31	-43	-64.3500852940517091838	-22.3744488329842212693	-34.9157316140397284698	-46.2014528409023910172
5.0.14.0	win	042419	22:25:31	002	1	game	3	selection	265	1	67	67	0	slot1	398	398	1	2	4	-26	-63	-34	-29	-26	-4024	-65	2	2	-65	-23	-33	-44	-64.0782957752536646012	-22.9376157207331665688	-32.3956542394094597626	-44.6729482906331014647
5.0.14.0	win	042419	22:25:31	002	1	game	3	iti	268	1	67	67	0	0	2000	398	1	2	4	-26	-65	-34	-29	-26	-4024	-65	2	2	-65	-23	-33	-44	-64.0782957752536646012	-22.9376157207331665688	-32.3956542394094597626	-44.6729482906331014647
5.0.14.0	win	042419	22:25:31	002	1	game	3	selection	269	1	68	68	0	slot1	968	968	1	2	4	-26	-65	-34	-29	-26	-4087	-63	2	2	-63	-19	-37	-49	-66.5488587195703900079	-19.7502502863352304985	-32.9427592689973423035	-45.4024751245963713586
5.0.14.0	win	042419	22:25:31	002	1	game	3	iti	272	1	68	68	0	0	2000	968	1	2	4	-26	-63	-34	-29	-26	-4087	-63	2	2	-63	-19	-37	-49	-66.5488587195703900079	-19.7502502863352304985	-32.9427592689973423035	-45.4024751245963713586
5.0.14.0	win	042419	22:25:31	002	1	game	3	selection	273	1	69	69	0	slot1	692	692	1	2	4	-26	-63	-34	-29	-26	-4156	-69	2	2	-69	-23	-41	-43	-69.2870263679781857036	-23.2068588631081205165	-36.6844391656520301126	-45.7126997653498179375
5.0.14.0	win	042419	22:25:31	002	1	game	3	iti	276	1	69	69	0	0	2000	692	1	2	4	-26	-69	-34	-29	-26	-4156	-69	2	2	-69	-23	-41	-43	-69.2870263679781857036	-23.2068588631081205165	-36.6844391656520301126	-45.7126997653498179375
5.0.14.0	win	042419	22:25:31	002	1	game	3	selection	277	1	70	70	0	slot1	391	391	1	2	4	-26	-69	-34	-29	-26	-4218	-62	2	2	-62	-23	-35	-54	-68.4699780088383249677	-21.9450916313866351004	-32.0588468810343840687	-49.38886970604591653
5.0.14.0	win	042419	22:25:31	002	1	game	3	iti	280	1	70	70	0	0	2000	391	1	2	4	-26	-62	-34	-29	-26	-4218	-62	2	2	-62	-23	-35	-54	-68.4699780088383249677	-21.9450916313866351004	-32.0588468810343840687	-49.38886970604591653
5.0.14.0	win	042419	22:25:31	002	1	game	3	selection	281	1	71	71	0	slot1	338	338	1	2	4	-26	-62	-34	-29	-26	-4294	-76	2	2	-76	-15	-31	-50	-70.4271476268695977296	-21.1469387718070542803	-31.2835730081356153676	-48.341741276514433423
5.0.14.0	win	042419	22:25:31	002	1	game	3	iti	284	1	71	71	0	0	2000	338	1	2	4	-26	-76	-34	-29	-26	-4294	-76	2	2	-76	-15	-31	-50	-70.4271476268695977296	-21.1469387718070542803	-31.2835730081356153676	-48.341741276514433423
5.0.14.0	win	042419	22:25:31	002	1	game	3	selection	285	1	72	72	0	slot1	436	436	1	2	4	-26	-76	-34	-29	-26	-4368	-74	2	3	-74	-29	-21	-48	-71.9170413855436265749	-19.5087989066792886206	-30.3491735847621377786	-48.1782419172210580882
5.0.14.0	win	042419	22:25:31	002	1	game	3	iti	288	1	72	72	0	0	2000	436	1	2	4	-26	-74	-34	-29	-26	-4368	-74	2	3	-74	-29	-21	-48	-71.9170413855436265749	-19.5087989066792886206	-30.3491735847621377786	-48.1782419172210580882
5.0.14.0	win	042419	22:25:31	002	1	game	3	selection	289	1	73	73	0	slot1	447	447	1	2	4	-26	-74	-34	-29	-26	-4443	-75	2	2	-75	-26	-28	-44	-71.4948129897989730352	-21.4366170516335721175	-32.345241842956276912	-47.931749301551370479
5.0.14.0	win	042419	22:25:31	002	1	game	3	iti	292	1	73	73	0	0	2000	447	1	2	4	-26	-75	-34	-29	-26	-4443	-75	2	2	-75	-26	-28	-44	-71.4948129897989730352	-21.4366170516335721175	-32.345241842956276912	-47.931749301551370479
5.0.14.0	win	042419	22:25:31	002	1	game	3	selection	293	1	74	74	0	slot1	518	518	1	2	4	-26	-75	-34	-29	-26	-4523	-80	2	2	-80	-16	-37	-48	-77.0284775224960611695	-19.039161173032145058	-36.312081582188000084	-46.6132980256862623492
5.0.14.0	win	042419	22:25:31	002	1	game	3	iti	296	1	74	74	0	0	2000	518	1	2	4	-26	-80	-34	-29	-26	-4523	-80	2	2	-80	-16	-37	-48	-77.0284775224960611695	-19.039161173032145058	-36.312081582188000084	-46.6132980256862623492
5.0.14.0	win	042419	22:25:31	002	1	game	3	selection	297	1	75	75	0	slot1	377	377	1	2	4	-26	-80	-34	-29	-26	-4600	-77	2	2	-77	-18	-27	-49	-79.318242188929502845	-19.1743997334161200286	-32.0535201430063736439	-49.1737340882390796537
5.0.14.0	win	042419	22:25:31	002	1	game	3	iti	300	1	75	75	0	0	2000	377	1	2	4	-26	-77	-34	-29	-26	-4600	-77	2	2	-77	-18	-27	-49	-79.318242188929502845	-19.1743997334161200286	-32.0535201430063736439	-49.1737340882390796537
5.0.14.0	win	042419	22:25:31	002	1	game	3	selection	301	1	76	76	0	slot1	458	458	1	2	4	-26	-77	-34	-29	-26	-4680	-80	2	2	-80	-22	-26	-42	-81.4760263645310374159	-22.0378948082104137995	-33.9222081699658346565	-42.9218264289274884504
5.0.14.0	win	042419	22:25:31	002	1	game	3	iti	304	1	76	76	0	0	2000	458	1	2	4	-26	-80	-34	-29	-26	-4680	-80	2	2	-80	-22	-26	-42	-81.4760263645310374159	-22.0378948082104137995	-33.9222081699658346565	-42.9218264289274884504
5.0.14.0	win	042419	22:25:31	002	1	game	3	selection	305	1	77	77	0	slot1	604	604	1	2	4	-26	-80	-34	-29	-26	-4756	-76	2	2	-76	-25	-29	-41	-78.3859842334679370879	-23.1312463606373732716	-32.8146508506005005756	-47.0500419880871376677
5.0.14.0	win	042419	22:25:31	002	1	game	3	iti	308	1	77	77	0	0	2000	604	1	2	4	-26	-76	-34	-29	-26	-4756	-76	2	2	-76	-25	-29	-41	-78.3859842334679370879	-23.1312463606373732716	-32.8146508506005005756	-47.0500419880871376677
5.0.14.0	win	042419	22:25:31	002	1	game	3	selection	309	1	78	78	0	slot1	634	634	1	2	4	-26	-76	-34	-29	-26	-4841	-85	2	2	-85	-20	-32	-51	-79.3734725283306374877	-23.5772636265303603409	-37.2364296704822166362	-51.9370858637998793483
5.0.14.0	win	042419	22:25:31	002	1	game	3	iti	312	1	78	78	0	0	2000	634	1	2	4	-26	-85	-34	-29	-26	-4841	-85	2	2	-85	-20	-32	-51	-79.3734725283306374877	-23.5772636265303603409	-37.2364296704822166362	-51.9370858637998793483
5.0.14.0	win	042419	22:25:31	002	1	game	3	selection	313	1	79	79	0	slot1	482	482	1	2	4	-26	-85	-34	-29	-26	-4917	-76	2	2	-76	-30	-34	-48	-80.4532299610675636359	-26.5314062703348554351	-33.5242035391169892478	-49.8936530345300184308
5.0.14.0	win	042419	22:25:31	002	1	game	3	iti	316	1	79	79	0	0	2000	482	1	2	4	-26	-76	-34	-29	-26	-4917	-76	2	2	-76	-30	-34	-48	-80.4532299610675636359	-26.5314062703348554351	-33.5242035391169892478	-49.8936530345300184308
5.0.14.0	win	042419	22:25:31	002	1	game	3	selection	317	1	80	80	0	slot1	585	585	1	2	4	-26	-76	-34	-29	-26	-5000	-83	2	2	-83	-30	-37	-50	-80.9614987730282251732	-29.2655015860450298248	-34.0159275356157451142	-52.3160350126287312378
5.0.14.0	win	042419	22:25:31	002	1	game	3	iti	320	1	80	80	0	0	2000	585	1	2	4	-26	-83	-34	-29	-26	-5000	-83	2	2	-83	-30	-37	-50	-80.9614987730282251732	-29.2655015860450298248	-34.0159275356157451142	-52.3160350126287312378
5.0.14.0	win	042419	22:25:31	002	1	game	3	selection	321	1	81	81	0	slot1	803	803	1	2	4	-26	-83	-34	-29	-26	-5084	-84	2	2	-84	-35	-37	-55	-85.6657902774090160847	-33.4780962843246214788	-38.1225348161919157519	-50.1021078388419667249
5.0.14.0	win	042419	22:25:31	002	1	game	3	iti	324	1	81	81	0	0	2000	803	1	2	4	-26	-84	-34	-29	-26	-5084	-84	2	2	-84	-35	-37	-55	-85.6657902774090160847	-33.4780962843246214788	-38.1225348161919157519	-50.1021078388419667249
5.0.14.0	win	042419	22:25:31	002	1	game	3	selection	325	1	82	82	0	slot1	469	469	1	2	4	-26	-84	-34	-29	-26	-5180	-96	2	3	-96	-31	-30	-53	-87.2948594576956224955	-28.4723613495806162632	-34.8907560578047082345	-50.7652485438669884843
5.0.14.0	win	042419	22:25:31	002	1	game	3	iti	328	1	82	82	0	0	2000	469	1	2	4	-26	-96	-34	-29	-26	-5180	-96	2	3	-96	-31	-30	-53	-87.2948594576956224955	-28.4723613495806162632	-34.8907560578047082345	-50.7652485438669884843
5.0.14.0	win	042419	22:25:31	002	1	game	3	selection	329	1	83	83	0	slot1	449	449	1	2	4	-26	-96	-34	-29	-26	-5260	-80	2	2	-80	-29	-33	-52	-88.5157672434435482955	-31.2913690654983511763	-32.5993137285209186871	-49.9766370488481257439
5.0.14.0	win	042419	22:25:31	002	1	game	3	iti	332	1	83	83	0	0	2000	449	1	2	4	-26	-80	-34	-29	-26	-5260	-80	2	2	-80	-29	-33	-52	-88.5157672434435482955	-31.2913690654983511763	-32.5993137285209186871	-49.9766370488481257439
5.0.14.0	win	042419	22:25:31	002	1	game	3	selection	333	1	84	84	0	slot1	949	949	1	2	4	-26	-80	-34	-29	-26	-5342	-82	2	3	-82	-35	-29	-55	-83.0417767264904540525	-33.6450523298250629978	-34.6750092593719045908	-53.4639500973350081381
5.0.14.0	win	042419	22:25:31	002	1	game	3	iti	336	1	84	84	0	0	2000	949	1	2	4	-26	-82	-34	-29	-26	-5342	-82	2	3	-82	-35	-29	-55	-83.0417767264904540525	-33.6450523298250629978	-34.6750092593719045908	-53.4639500973350081381
5.0.14.0	win	042419	22:25:31	002	1	game	3	selection	337	1	85	85	0	slot1	445	445	1	2	4	-26	-82	-34	-29	-26	-5426	-84	2	3	-84	-45	-34	-53	-83.6820527845734574157	-38.9999226176946010014	-34.5281498124420096474	-55.1572124759227051527
5.0.14.0	win	042419	22:25:31	002	1	game	3	iti	340	1	85	85	0	0	2000	445	1	2	4	-26	-84	-34	-29	-26	-5426	-84	2	3	-84	-45	-34	-53	-83.6820527845734574157	-38.9999226176946010014	-34.5281498124420096474	-55.1572124759227051527
5.0.14.0	win	042419	22:25:31	002	1	game	3	selection	341	1	86	86	0	slot1	823	823	1	2	4	-26	-84	-34	-29	-26	-5507	-81	2	3	-81	-40	-36	-61	-83.6516263919186258136	-39.9076642494492475066	-31.9887247005937744859	-59.5907977326712767763
5.0.14.0	win	042419	22:25:31	002	1	game	3	iti	344	1	86	86	0	0	2000	823	1	2	4	-26	-81	-34	-29	-26	-5507	-81	2	3	-81	-40	-36	-61	-83.6516263919186258136	-39.9076642494492475066	-31.9887247005937744859	-59.5907977326712767763
5.0.14.0	win	042419	22:25:31	002	1	game	3	selection	345	1	87	87	0	slot1	361	361	1	2	4	-26	-81	-34	-29	-26	-5595	-88	2	3	-88	-40	-30	-60	-86.9268174628736005616	-41.4955729387697047628	-29.3046144122332137272	-58.7033807840414780799
5.0.14.0	win	042419	22:25:31	002	1	game	3	iti	348	1	87	87	0	0	2000	361	1	2	4	-26	-88	-34	-29	-26	-5595	-88	2	3	-88	-40	-30	-60	-86.9268174628736005616	-41.4955729387697047628	-29.3046144122332137272	-58.7033807840414780799
5.0.14.0	win	042419	22:25:31	002	1	game	3	selection	349	1	88	88	0	slot1	507	507	1	2	4	-26	-88	-34	-29	-26	-5686	-91	2	3	-91	-42	-33	-57	-88.8983081492088729192	-40.5706354052462074833	-34.3739420088346037119	-57.5116596441879792678
5.0.14.0	win	042419	22:25:31	002	1	game	3	iti	352	1	88	88	0	0	2000	507	1	2	4	-26	-91	-34	-29	-26	-5686	-91	2	3	-91	-42	-33	-57	-88.8983081492088729192	-40.5706354052462074833	-34.3739420088346037119	-57.5116596441879792678
5.0.14.0	win	042419	22:25:31	002	1	game	3	selection	353	1	89	89	0	slot1	324	324	1	2	4	-26	-91	-34	-29	-26	-5767	-81	2	3	-81	-41	-28	-65	-84.9769802118305790373	-42.8747913687745310085	-28.708438335863640134	-57.5709598576350103372
5.0.14.0	win	042419	22:25:31	002	1	game	3	iti	356	1	89	89	0	0	2000	324	1	2	4	-26	-81	-34	-29	-26	-5767	-81	2	3	-81	-41	-28	-65	-84.9769802118305790373	-42.8747913687745310085	-28.708438335863640134	-57.5709598576350103372
5.0.14.0	win	042419	22:25:31	002	1	game	3	selection	357	1	90	90	0	slot1	568	568	1	2	4	-26	-81	-34	-29	-26	-5846	-79	2	3	-79	-41	-31	-65	-81.2816540724578402433	-41.5887244437691308008	-31.7698883501130850959	-57.0478558449207540093
5.0.14.0	win	042419	22:25:31	002	1	game	3	iti	360	1	90	90	0	0	2000	568	1	2	4	-26	-79	-34	-29	-26	-5846	-79	2	3	-79	-41	-31	-65	-81.2816540724578402433	-41.5887244437691308008	-31.7698883501130850959	-57.0478558449207540093
5.0.14.0	win	042419	22:25:31	002	1	game	3	selection	361	1	91	91	0	slot1	611	611	1	2	4	-26	-79	-34	-29	-26	-5924	-78	2	2	-78	-28	-29	-65	-76.9671897215224305455	-34.5700988822835810765	-31.5667515566885867884	-57.8294143385675099012
5.0.14.0	win	042419	22:25:31	002	1	game	3	iti	364	1	91	91	0	0	2000	611	1	2	4	-26	-78	-34	-29	-26	-5924	-78	2	2	-78	-28	-29	-65	-76.9671897215224305455	-34.5700988822835810765	-31.5667515566885867884	-57.8294143385675099012
5.0.14.0	win	042419	22:25:31	002	1	game	3	selection	365	1	92	92	0	slot1	533	533	1	2	4	-26	-78	-34	-29	-26	-5999	-75	2	2	-75	-37	-40	-55	-74.820777614538840794	-30.7923782276846438322	-36.5863012672520397928	-60.4528468339954443422
5.0.14.0	win	042419	22:25:31	002	1	game	3	iti	368	1	92	92	0	0	2000	533	1	2	4	-26	-75	-34	-29	-26	-5999	-75	2	2	-75	-37	-40	-55	-74.820777614538840794	-30.7923782276846438322	-36.5863012672520397928	-60.4528468339954443422
5.0.14.0	win	042419	22:25:31	002	1	game	3	selection	369	1	93	93	0	slot1	543	543	1	2	4	-26	-75	-34	-29	-26	-6081	-82	2	2	-82	-32	-43	-60	-78.5265066924142729476	-32.2788399611783844989	-38.2355207175570015465	-55.8382207604716214178
5.0.14.0	win	042419	22:25:31	002	1	game	3	iti	372	1	93	93	0	0	2000	543	1	2	4	-26	-82	-34	-29	-26	-6081	-82	2	2	-82	-32	-43	-60	-78.5265066924142729476	-32.2788399611783844989	-38.2355207175570015465	-55.8382207604716214178
5.0.14.0	win	042419	22:25:31	002	1	game	3	selection	373	1	94	94	0	slot1	421	421	1	2	4	-26	-82	-34	-29	-26	-6163	-82	2	2	-82	-30	-37	-51	-77.1849377013433155525	-36.0200728191098136222	-38.1796861984078859109	-52.4796300357386229507
5.0.14.0	win	042419	22:25:31	002	1	game	3	iti	376	1	94	94	0	0	2000	421	1	2	4	-26	-82	-34	-29	-26	-6163	-82	2	2	-82	-30	-37	-51	-77.1849377013433155525	-36.0200728191098136222	-38.1796861984078859109	-52.4796300357386229507
5.0.14.0	win	042419	22:25:31	002	1	game	3	selection	377	1	95	95	0	slot1	719	719	1	2	4	-26	-82	-34	-29	-26	-6238	-75	2	2	-75	-31	-47	-46	-82.3334628408989033233	-36.3034216323465770415	-44.2997185798979273841	-47.7986308619809818765
5.0.14.0	win	042419	22:25:31	002	1	game	3	iti	380	1	95	95	0	0	2000	719	1	2	4	-26	-75	-34	-29	-26	-6238	-75	2	2	-75	-31	-47	-46	-82.3334628408989033233	-36.3034216323465770415	-44.2997185798979273841	-47.7986308619809818765
5.0.14.0	win	042419	22:25:31	002	1	game	3	selection	381	1	96	96	0	slot1	439	439	1	2	4	-26	-75	-34	-29	-26	-6324	-86	2	2	-86	-35	-51	-45	-84.3904075378347755532	-38.0695795982568512272	-44.6558058953502765576	-47.9399759275275911818
5.0.14.0	win	042419	22:25:31	002	1	game	3	iti	384	1	96	96	0	0	2000	439	1	2	4	-26	-86	-34	-29	-26	-6324	-86	2	2	-86	-35	-51	-45	-84.3904075378347755532	-38.0695795982568512272	-44.6558058953502765576	-47.9399759275275911818
5.0.14.0	win	042419	22:25:31	002	1	game	3	selection	385	1	97	97	0	slot1	457	457	1	2	4	-26	-86	-34	-29	-26	-6414	-90	2	2	-90	-30	-48	-46	-86.8840345714901616248	-32.403273259568202036	-46.1222713746189114659	-45.3872842838853642888
5.0.14.0	win	042419	22:25:31	002	1	game	3	iti	388	1	97	97	0	0	2000	457	1	2	4	-26	-90	-34	-29	-26	-6414	-90	2	2	-90	-30	-48	-46	-86.8840345714901616248	-32.403273259568202036	-46.1222713746189114659	-45.3872842838853642888
5.0.14.0	win	042419	22:25:31	002	1	game	3	selection	389	1	98	98	0	slot1	429	429	1	2	4	-26	-90	-34	-29	-26	-6502	-88	2	2	-88	-33	-44	-40	-84.0984139467902025444	-31.2066110937554590521	-40.315372652672827769	-38.7193565880900862908
5.0.14.0	win	042419	22:25:31	002	1	game	3	iti	392	1	98	98	0	0	2000	429	1	2	4	-26	-88	-34	-29	-26	-6502	-88	2	2	-88	-33	-44	-40	-84.0984139467902025444	-31.2066110937554590521	-40.315372652672827769	-38.7193565880900862908
5.0.14.0	win	042419	22:25:31	002	1	game	3	selection	393	1	99	99	0	slot1	449	449	1	2	4	-26	-88	-34	-29	-26	-6579	-77	2	3	-77	-32	-31	-39	-80.5243882586398171952	-28.9109541610650886412	-36.036875431647651169	-39.9521239323100516572
5.0.14.0	win	042419	22:25:31	002	1	game	3	iti	396	1	99	99	0	0	2000	449	1	2	4	-26	-77	-34	-29	-26	-6579	-77	2	3	-77	-32	-31	-39	-80.5243882586398171952	-28.9109541610650886412	-36.036875431647651169	-39.9521239323100516572
5.0.14.0	win	042419	22:25:31	002	1	game	3	selection	397	1	100	100	0	slot1	368	368	1	2	4	-26	-77	-34	-29	-26	-6663	-84	2	2	-84	-30	-50	-39	-78.7985118832319813009	-27.9823254747227530004	-42.9313303383215227882	-39.7369921898019882178
5.0.14.0	win	042419	22:25:31	002	1	game	3	iti	400	1	100	100	0	0	2000	368	1	2	4	-26	-84	-34	-29	-26	-6663	-84	2	2	-84	-30	-50	-39	-78.7985118832319813009	-27.9823254747227530004	-42.9313303383215227882	-39.7369921898019882178
5.0.14.0	win	042419	22:25:31	002	1	game	3	selection	401	1	101	101	0	slot1	595	595	1	2	4	-26	-84	-34	-29	-26	-6735	-72	2	2	-72	-30	-47	-44	-79.1445331148205752925	-28.6125156761409229489	-44.0759580726660047389	-42.8778789242438307383
5.0.14.0	win	042419	22:25:31	002	1	game	3	iti	404	1	101	101	0	0	2000	595	1	2	4	-26	-72	-34	-29	-26	-6735	-72	2	2	-72	-30	-47	-44	-79.1445331148205752925	-28.6125156761409229489	-44.0759580726660047389	-42.8778789242438307383
5.0.14.0	win	042419	22:25:31	002	1	game	3	selection	405	1	102	102	0	slot1	562	562	1	2	4	-26	-72	-34	-29	-26	-6812	-77	2	2	-77	-40	-44	-45	-82.8460086828899591183	-31.4446206990032237627	-48.021465103515893702	-44.1390887062014982689
5.0.14.0	win	042419	22:25:31	002	1	game	3	iti	408	1	102	102	0	0	2000	562	1	2	4	-26	-77	-34	-29	-26	-6812	-77	2	2	-77	-40	-44	-45	-82.8460086828899591183	-31.4446206990032237627	-48.021465103515893702	-44.1390887062014982689
5.0.14.0	win	042419	22:25:31	002	1	game	3	selection	409	1	103	103	0	slot1	636	636	1	2	4	-26	-77	-34	-29	-26	-6892	-80	2	2	-80	-35	-48	-43	-78.0854378159729378694	-27.2227126324059867102	-48.8288773502678026261	-43.6123275802626793052
5.0.14.0	win	042419	22:25:31	002	1	game	3	iti	412	1	103	103	0	0	2000	636	1	2	4	-26	-80	-34	-29	-26	-6892	-80	2	2	-80	-35	-48	-43	-78.0854378159729378694	-27.2227126324059867102	-48.8288773502678026261	-43.6123275802626793052
5.0.14.0	win	042419	22:25:31	002	1	game	3	selection	413	1	104	104	0	slot1	412	412	1	2	4	-26	-80	-34	-29	-26	-6968	-76	2	2	-76	-25	-49	-51	-77.1270449690817372357	-27.0559844233430375482	-47.4316406067823379544	-44.5086250660737405838
5.0.14.0	win	042419	22:25:31	002	1	game	3	iti	416	1	104	104	0	0	2000	412	1	2	4	-26	-76	-34	-29	-26	-6968	-76	2	2	-76	-25	-49	-51	-77.1270449690817372357	-27.0559844233430375482	-47.4316406067823379544	-44.5086250660737405838
5.0.14.0	win	042419	22:25:31	002	1	game	3	selection	417	1	105	105	0	slot1	1146	1146	1	2	4	-26	-76	-34	-29	-26	-7036	-68	2	2	-68	-18	-55	-48	-75.8355740068799377696	-22.472451877228053263	-46.4649168293788008555	-49.0648271702073017764
5.0.14.0	win	042419	22:25:31	002	1	game	3	iti	420	1	105	105	0	0	2000	1146	1	2	4	-26	-68	-34	-29	-26	-7036	-68	2	2	-68	-18	-55	-48	-75.8355740068799377696	-22.472451877228053263	-46.4649168293788008555	-49.0648271702073017764
5.0.14.0	win	042419	22:25:31	002	1	game	3	selection	421	1	106	106	0	slot1	492	492	1	2	4	-26	-68	-34	-29	-26	-7113	-77	2	2	-77	-21	-51	-50	-78.5836002177492360943	-25.7249016335017230972	-44.8892631721618755591	-46.5486072497863503372
5.0.14.0	win	042419	22:25:31	002	1	game	3	iti	424	1	106	106	0	0	2000	492	1	2	4	-26	-77	-34	-29	-26	-7113	-77	2	2	-77	-21	-51	-50	-78.5836002177492360943	-25.7249016335017230972	-44.8892631721618755591	-46.5486072497863503372
5.0.14.0	win	042419	22:25:31	002	1	game	3	selection	425	1	107	107	0	slot1	432	432	1	2	4	-26	-77	-34	-29	-26	-7178	-65	2	2	-65	-23	-44	-54	-73.1157938496565549258	-26.3227594689145973916	-42.5557092604233844213	-45.2582033234815384048
5.0.14.0	win	042419	22:25:31	002	1	game	3	iti	428	1	107	107	0	0	2000	432	1	2	4	-26	-65	-34	-29	-26	-7178	-65	2	2	-65	-23	-44	-54	-73.1157938496565549258	-26.3227594689145973916	-42.5557092604233844213	-45.2582033234815384048
5.0.14.0	win	042419	22:25:31	002	1	game	3	selection	429	1	108	108	0	slot1	428	428	1	2	4	-26	-65	-34	-29	-26	-7247	-69	2	2	-69	-28	-36	-43	-70.6540592953113986141	-28.0781829983402602124	-41.4843202490971023622	-44.5353790540684286725
5.0.14.0	win	042419	22:25:31	002	1	game	3	iti	432	1	108	108	0	0	2000	428	1	2	4	-26	-69	-34	-29	-26	-7247	-69	2	2	-69	-28	-36	-43	-70.6540592953113986141	-28.0781829983402602124	-41.4843202490971023622	-44.5353790540684286725
5.0.14.0	win	042419	22:25:31	002	1	game	3	selection	433	1	109	109	0	slot1	468	468	1	2	4	-26	-69	-34	-29	-26	-7320	-73	2	2	-73	-29	-44	-50	-70.078123246044839334	-28.5420269053431354678	-39.9718604121290184139	-45.3406592922191080675
5.0.14.0	win	042419	22:25:31	002	1	game	3	iti	436	1	109	109	0	0	2000	468	1	2	4	-26	-73	-34	-29	-26	-7320	-73	2	2	-73	-29	-44	-50	-70.078123246044839334	-28.5420269053431354678	-39.9718604121290184139	-45.3406592922191080675
5.0.14.0	win	042419	22:25:31	002	1	game	3	selection	437	1	110	110	0	slot1	395	395	1	2	4	-26	-73	-34	-29	-26	-7390	-70	2	3	-70	-36	-35	-51	-67.6269493177922100813	-26.9901003805023442794	-36.7923669389457401735	-51.3872283649112517878
5.0.14.0	win	042419	22:25:31	002	1	game	3	iti	440	1	110	110	0	0	2000	395	1	2	4	-26	-70	-34	-29	-26	-7390	-70	2	3	-70	-36	-35	-51	-67.6269493177922100813	-26.9901003805023442794	-36.7923669389457401735	-51.3872283649112517878
5.0.14.0	win	042419	22:25:31	002	1	game	3	selection	441	1	111	111	0	slot1	573	573	1	2	4	-26	-70	-34	-29	-26	-7453	-63	2	2	-63	-30	-35	-49	-66.3051319863857600012	-28.2744793680661103963	-37.9470855865231939674	-53.3253085656278074111
5.0.14.0	win	042419	22:25:31	002	1	game	3	iti	444	1	111	111	0	0	2000	573	1	2	4	-26	-63	-34	-29	-26	-7453	-63	2	2	-63	-30	-35	-49	-66.3051319863857600012	-28.2744793680661103963	-37.9470855865231939674	-53.3253085656278074111
5.0.14.0	win	042419	22:25:31	002	1	game	3	selection	445	1	112	112	0	slot1	538	538	1	2	4	-26	-63	-34	-29	-26	-7522	-69	2	2	-69	-22	-39	-52	-66.7681553259045159621	-28.4130514071703359491	-38.7941010607448504288	-54.7429820232117450018
5.0.14.0	win	042419	22:25:31	002	1	game	3	iti	448	1	112	112	0	0	2000	538	1	2	4	-26	-69	-34	-29	-26	-7522	-69	2	2	-69	-22	-39	-52	-66.7681553259045159621	-28.4130514071703359491	-38.7941010607448504288	-54.7429820232117450018
5.0.14.0	win	042419	22:25:31	002	1	game	3	selection	449	1	113	113	0	slot1	457	457	1	2	4	-26	-69	-34	-29	-26	-7594	-72	2	2	-72	-28	-38	-55	-66.4821944500310451076	-33.595359458031929023	-38.2612704579178384279	-56.7395348336468146044
5.0.14.0	win	042419	22:25:31	002	1	game	3	iti	452	1	113	113	0	0	2000	457	1	2	4	-26	-72	-34	-29	-26	-7594	-72	2	2	-72	-28	-38	-55	-66.4821944500310451076	-33.595359458031929023	-38.2612704579178384279	-56.7395348336468146044
5.0.14.0	win	042419	22:25:31	002	1	game	3	selection	453	1	114	114	0	slot1	486	486	1	2	4	-26	-72	-34	-29	-26	-7665	-71	2	2	-71	-22	-36	-62	-69.4473436900766358804	-27.753793651201497994	-40.9580905382475108922	-57.6815225389085242114
5.0.14.0	win	042419	22:25:31	002	1	game	3	iti	456	1	114	114	0	0	2000	486	1	2	4	-26	-71	-34	-29	-26	-7665	-71	2	2	-71	-22	-36	-62	-69.4473436900766358804	-27.753793651201497994	-40.9580905382475108922	-57.6815225389085242114
5.0.14.0	win	042419	22:25:31	002	1	game	3	selection	457	1	115	115	0	slot1	632	632	1	2	4	-26	-71	-34	-29	-26	-7737	-72	2	2	-72	-33	-41	-50	-68.6494481487287941945	-28.7119208088067416895	-40.1786934914265430052	-52.3161389151169231582
5.0.14.0	win	042419	22:25:31	002	1	game	3	iti	460	1	115	115	0	0	2000	632	1	2	4	-26	-72	-34	-29	-26	-7737	-72	2	2	-72	-33	-41	-50	-68.6494481487287941945	-28.7119208088067416895	-40.1786934914265430052	-52.3161389151169231582
5.0.14.0	win	042419	22:25:31	002	1	game	3	selection	461	1	116	116	0	slot1	395	395	1	2	4	-26	-72	-34	-29	-26	-7812	-75	2	2	-75	-34	-40	-49	-70.5786211397652039068	-28.6648612843337424749	-35.8879300753877217289	-52.1424416327888735623
5.0.14.0	win	042419	22:25:31	002	1	game	3	iti	464	1	116	116	0	0	2000	395	1	2	4	-26	-75	-34	-29	-26	-7812	-75	2	2	-75	-34	-40	-49	-70.5786211397652039068	-28.6648612843337424749	-35.8879300753877217289	-52.1424416327888735623
5.0.14.0	win	042419	22:25:31	002	1	game	3	selection	465	1	117	117	0	slot1	417	417	1	2	4	-26	-75	-34	-29	-26	-7887	-75	2	2	-75	-28	-30	-54	-72.3060048176494660765	-29.9981146144070542903	-36.5728369810382076821	-49.9326897358862709098
5.0.14.0	win	042419	22:25:31	002	1	game	3	iti	468	1	117	117	0	0	2000	417	1	2	4	-26	-75	-34	-29	-26	-7887	-75	2	2	-75	-28	-30	-54	-72.3060048176494660765	-29.9981146144070542903	-36.5728369810382076821	-49.9326897358862709098
5.0.14.0	win	042419	22:25:31	002	1	game	3	selection	469	1	118	118	0	slot1	1411	1411	1	2	4	-26	-75	-34	-29	-26	-7953	-66	2	2	-66	-34	-38	-47	-64.9571340406018720159	-30.6066876864450492235	-37.8855934114430468185	-45.0097037717119405897
5.0.14.0	win	042419	22:25:31	002	1	game	3	iti	472	1	118	118	0	0	2000	1411	1	2	4	-26	-66	-34	-29	-26	-7953	-66	2	2	-66	-34	-38	-47	-64.9571340406018720159	-30.6066876864450492235	-37.8855934114430468185	-45.0097037717119405897
5.0.14.0	win	042419	22:25:31	002	1	game	3	selection	473	1	119	119	0	slot1	653	653	1	2	4	-26	-66	-34	-29	-26	-8015	-62	2	2	-62	-27	-34	-50	-63.6969651322447987241	-34.2207092791954821109	-36.8115662995363521759	-46.615051776725124455
5.0.14.0	win	042419	22:25:31	002	1	game	3	iti	476	1	119	119	0	0	2000	653	1	2	4	-26	-62	-34	-29	-26	-8015	-62	2	2	-62	-27	-34	-50	-63.6969651322447987241	-34.2207092791954821109	-36.8115662995363521759	-46.615051776725124455
5.0.14.0	win	042419	22:25:31	002	1	game	3	selection	477	1	120	120	0	slot1	604	604	1	2	4	-26	-62	-34	-29	-26	-8077	-62	2	2	-62	-31	-39	-32	-63.5498656774842771711	-36.8530156502158590115	-39.2253359910060765969	-40.6204591198705884381
5.0.14.0	win	042419	22:25:31	002	1	game	3	iti	480	1	120	120	0	0	2000	604	1	2	4	-26	-62	-34	-29	-26	-8077	-62	2	2	-62	-31	-39	-32	-63.5498656774842771711	-36.8530156502158590115	-39.2253359910060765969	-40.6204591198705884381
5.0.14.0	win	042419	22:25:31	002	1	game	3	selection	481	1	121	121	0	slot1	426	426	1	2	4	-26	-62	-34	-29	-26	-8134	-57	2	2	-57	-36	-38	-41	-55.8415516962628544206	-38.0749693367071060379	-36.6781104030698799079	-36.5513943033056420973
5.0.14.0	win	042419	22:25:31	002	1	game	3	iti	484	1	121	121	0	0	2000	426	1	2	4	-26	-57	-34	-29	-26	-8134	-57	2	2	-57	-36	-38	-41	-55.8415516962628544206	-38.0749693367071060379	-36.6781104030698799079	-36.5513943033056420973
5.0.14.0	win	042419	22:25:31	002	1	game	3	selection	485	1	122	122	0	slot1	423	423	1	2	4	-26	-57	-34	-29	-26	-8193	-59	2	4	-59	-39	-44	-28	-54.2559105856751529018	-39.8374119446509311615	-33.4086371301141724643	-32.9689982079326284747
5.0.14.0	win	042419	22:25:31	002	1	game	3	iti	488	1	122	122	0	0	2000	423	1	2	4	-26	-59	-34	-29	-26	-8193	-59	2	4	-59	-39	-44	-28	-54.2559105856751529018	-39.8374119446509311615	-33.4086371301141724643	-32.9689982079326284747
5.0.14.0	win	042419	22:25:31	002	1	game	3	selection	489	1	123	123	0	slot1	436	436	1	2	4	-26	-59	-34	-29	-26	-8246	-53	2	4	-53	-44	-41	-36	-54.9297984042195253096	-46.8655301810316800015	-37.2198010454346572828	-32.8861260110013375879
5.0.14.0	win	042419	22:25:31	002	1	game	3	iti	492	1	123	123	0	0	2000	436	1	2	4	-26	-53	-34	-29	-26	-8246	-53	2	4	-53	-44	-41	-36	-54.9297984042195253096	-46.8655301810316800015	-37.2198010454346572828	-32.8861260110013375879
5.0.14.0	win	042419	22:25:31	002	1	game	3	selection	493	1	124	124	0	slot1	501	501	1	2	4	-26	-53	-34	-29	-26	-8302	-56	2	3	-56	-46	-38	-39	-54.8907630075869477082	-43.5043673571597935279	-32.9359928468287606051	-35.9336228056783326679
5.0.14.0	win	042419	22:25:31	002	1	game	3	iti	496	1	124	124	0	0	2000	501	1	2	4	-26	-56	-34	-29	-26	-8302	-56	2	3	-56	-46	-38	-39	-54.8907630075869477082	-43.5043673571597935279	-32.9359928468287606051	-35.9336228056783326679
5.0.14.0	win	042419	22:25:31	002	1	game	3	selection	497	1	125	125	0	slot1	542	542	1	2	4	-26	-56	-34	-29	-26	-8354	-52	2	3	-52	-47	-34	-43	-53.1185419768588147349	-47.0640679242807848937	-33.0222526664151416753	-34.6696248828265396469
5.0.14.0	win	042419	22:25:31	002	1	game	3	iti	500	1	125	125	0	0	2000	542	1	2	4	-26	-52	-34	-29	-26	-8354	-52	2	3	-52	-47	-34	-43	-53.1185419768588147349	-47.0640679242807848937	-33.0222526664151416753	-34.6696248828265396469
5.0.14.0	win	042419	22:25:31	002	1	game	3	selection	501	1	126	126	0	slot1	541	541	1	2	4	-26	-52	-34	-29	-26	-8408	-54	2	4	-54	-39	-46	-32	-51.4135949719314169215	-46.8325530847915629806	-37.2236163561462021221	-33.5398185659201715225
5.0.14.0	win	042419	22:25:31	002	1	game	3	iti	504	1	126	126	0	0	2000	541	1	2	4	-26	-54	-34	-29	-26	-8408	-54	2	4	-54	-39	-46	-32	-51.4135949719314169215	-46.8325530847915629806	-37.2236163561462021221	-33.5398185659201715225
5.0.14.0	win	042419	22:25:31	002	1	game	3	selection	505	1	127	127	0	slot1	413	413	1	2	4	-26	-54	-34	-29	-26	-8459	-51	2	4	-51	-42	-39	-25	-49.9292068452295154657	-44.7343669213501300419	-37.5310353337218458591	-32.0466681018487662413
5.0.14.0	win	042419	22:25:31	002	1	game	3	iti	508	1	127	127	0	0	2000	413	1	2	4	-26	-51	-34	-29	-26	-8459	-51	2	4	-51	-42	-39	-25	-49.9292068452295154657	-44.7343669213501300419	-37.5310353337218458591	-32.0466681018487662413
5.0.14.0	win	042419	22:25:31	002	1	game	3	selection	509	1	128	128	0	slot1	415	415	1	2	4	-26	-51	-34	-29	-26	-8507	-48	2	4	-48	-46	-33	-25	-48.2485576518811569713	-44.277155064348534097	-41.1094778741908157826	-30.7865939760989064666
5.0.14.0	win	042419	22:25:31	002	1	game	3	iti	512	1	128	128	0	0	2000	415	1	2	4	-26	-48	-34	-29	-26	-8507	-48	2	4	-48	-46	-33	-25	-48.2485576518811569713	-44.277155064348534097	-41.1094778741908157826	-30.7865939760989064666
5.0.14.0	win	042419	22:25:31	002	1	game	3	selection	513	1	129	129	0	slot2	872	872	2	2	4	-26	-48	-34	-29	-26	-8550	-43	2	4	-48	-43	-39	-28	-46.0367406002464036874	-45.1229506951382219881	-37.6882903074418464939	-32.6793530930554396718
5.0.14.0	win	042419	22:25:31	002	1	game	3	iti	516	1	129	129	0	0	2000	872	2	2	4	-26	-48	-43	-29	-26	-8550	-43	2	4	-48	-43	-39	-28	-46.0367406002464036874	-45.1229506951382219881	-37.6882903074418464939	-32.6793530930554396718
5.0.14.0	win	042419	22:25:31	002	1	game	3	selection	517	1	130	130	0	slot1	824	824	1	2	4	-26	-48	-43	-29	-26	-8597	-47	2	4	-47	-50	-37	-24	-47.2912397519600844475	-46.7263232986163501437	-33.8892179600071514756	-34.5615872653104432288
5.0.14.0	win	042419	22:25:31	002	1	game	3	iti	520	1	130	130	0	0	2000	824	1	2	4	-26	-47	-43	-29	-26	-8597	-47	2	4	-47	-50	-37	-24	-47.2912397519600844475	-46.7263232986163501437	-33.8892179600071514756	-34.5615872653104432288
5.0.14.0	win	042419	22:25:31	002	1	game	3	selection	521	1	131	131	0	slot1	385	385	1	2	4	-26	-47	-43	-29	-26	-8645	-48	2	4	-48	-47	-28	-24	-51.7641893077122858813	-43.9989758607683043579	-30.2749246357413035469	-32.3029214124071089032
5.0.14.0	win	042419	22:25:31	002	1	game	3	iti	524	1	131	131	0	0	2000	385	1	2	4	-26	-48	-43	-29	-26	-8645	-48	2	4	-48	-47	-28	-24	-51.7641893077122858813	-43.9989758607683043579	-30.2749246357413035469	-32.3029214124071089032
5.0.14.0	win	042419	22:25:31	002	1	game	3	selection	525	1	132	132	0	slot3	353	353	3	2	4	-26	-48	-43	-29	-26	-8672	-27	1	3	-55	-40	-27	-30	-51.143384227792182628	-40.0658210845001079292	-30.4133097775899798876	-30.0765592222134472422
5.0.14.0	win	042419	22:25:31	002	1	game	3	iti	528	1	132	132	0	0	2000	353	3	2	4	-26	-48	-43	-27	-26	-8672	-27	1	3	-55	-40	-27	-30	-51.143384227792182628	-40.0658210845001079292	-30.4133097775899798876	-30.0765592222134472422
5.0.14.0	win	042419	22:25:31	002	1	game	3	selection	529	1	133	133	0	slot4	337	337	4	1	4	-26	-48	-43	-27	-26	-8703	-31	1	4	-55	-41	-38	-31	-51.6418208457287803981	-41.8121742328422030255	-34.336441608423768912	-30.4446356532259265748
5.0.14.0	win	042419	22:25:31	002	1	game	3	iti	532	1	133	133	0	0	2000	337	4	1	3	-27	-48	-43	-27	-31	-8703	-31	1	4	-55	-41	-38	-31	-51.6418208457287803981	-41.8121742328422030255	-34.336441608423768912	-30.4446356532259265748
5.0.14.0	win	042419	22:25:31	002	1	game	3	selection	533	1	134	134	0	slot1	344	344	1	2	3	-27	-48	-43	-27	-31	-8757	-54	2	4	-54	-38	-35	-29	-53.0380084174781529782	-38.6196002604109764889	-34.0322099170245664368	-30.0917180240029296101
5.0.14.0	win	042419	22:25:31	002	1	game	3	iti	536	1	134	134	0	0	2000	344	1	2	3	-27	-54	-43	-27	-31	-8757	-54	2	4	-54	-38	-35	-29	-53.0380084174781529782	-38.6196002604109764889	-34.0322099170245664368	-30.0917180240029296101
5.0.14.0	win	042419	22:25:31	002	1	game	3	selection	537	1	135	135	0	slot1	393	393	1	2	3	-27	-54	-43	-27	-31	-8804	-47	2	4	-47	-42	-38	-31	-48.5665258562830643996	-37.0712909881734375972	-34.6208791202803709552	-30.2207053617427376935
5.0.14.0	win	042419	22:25:31	002	1	game	3	iti	540	1	135	135	0	0	2000	393	1	2	3	-27	-47	-43	-27	-31	-8804	-47	2	4	-47	-42	-38	-31	-48.5665258562830643996	-37.0712909881734375972	-34.6208791202803709552	-30.2207053617427376935
5.0.14.0	win	042419	22:25:31	002	1	game	3	selection	541	1	136	136	0	slot1	354	354	1	2	3	-27	-47	-43	-27	-31	-8852	-48	2	4	-48	-42	-35	-28	-47.7917669768539354891	-36.4928753365184590507	-34.7687226956038557546	-28.2557413857177657235
5.0.14.0	win	042419	22:25:31	002	1	game	3	iti	544	1	136	136	0	0	2000	354	1	2	3	-27	-48	-43	-27	-31	-8852	-48	2	4	-48	-42	-35	-28	-47.7917669768539354891	-36.4928753365184590507	-34.7687226956038557546	-28.2557413857177657235
5.0.14.0	win	042419	22:25:31	002	1	game	3	selection	545	1	137	137	0	slot1	357	357	1	2	3	-27	-48	-43	-27	-31	-8901	-49	2	4	-49	-36	-33	-24	-47.1724417591370581704	-34.4079074569280720652	-32.9159042245100010859	-31.3357253435912426198
5.0.14.0	win	042419	22:25:31	002	1	game	3	iti	548	1	137	137	0	0	2000	357	1	2	3	-27	-49	-43	-27	-31	-8901	-49	2	4	-49	-36	-33	-24	-47.1724417591370581704	-34.4079074569280720652	-32.9159042245100010859	-31.3357253435912426198
5.0.14.0	win	042419	22:25:31	002	1	game	3	selection	549	1	138	138	0	slot1	356	356	1	2	3	-27	-49	-43	-27	-31	-8945	-44	2	3	-44	-36	-25	-26	-47.359173960823767402	-34.2066667425831809624	-30.0550767493324109125	-28.5422263551142236793
5.0.14.0	win	042419	22:25:31	002	1	game	3	iti	552	1	138	138	0	0	2000	356	1	2	3	-27	-44	-43	-27	-31	-8945	-44	2	3	-44	-36	-25	-26	-47.359173960823767402	-34.2066667425831809624	-30.0550767493324109125	-28.5422263551142236793
5.0.14.0	win	042419	22:25:31	002	1	game	3	selection	553	1	139	139	0	slot1	589	589	1	2	3	-27	-44	-43	-27	-31	-8988	-43	2	4	-43	-30	-34	-24	-41.9258665021663361472	-34.9272645675645634356	-28.8465211991854140194	-24.7506769674989612895
5.0.14.0	win	042419	22:25:31	002	1	game	3	iti	556	1	139	139	0	0	2000	589	1	2	3	-27	-43	-43	-27	-31	-8988	-43	2	4	-43	-30	-34	-24	-41.9258665021663361472	-34.9272645675645634356	-28.8465211991854140194	-24.7506769674989612895
5.0.14.0	win	042419	22:25:31	002	1	game	3	selection	557	1	140	140	0	slot2	379	379	2	2	3	-27	-43	-43	-27	-31	-9023	-35	2	3	-39	-35	-24	-29	-39.9128014684004241985	-32.1625574350044729499	-28.6306482045411598847	-27.3049435214250060255
5.0.14.0	win	042419	22:25:31	002	1	game	3	iti	560	1	140	140	0	0	2000	379	2	2	3	-27	-43	-35	-27	-31	-9023	-35	2	3	-39	-35	-24	-29	-39.9128014684004241985	-32.1625574350044729499	-28.6306482045411598847	-27.3049435214250060255
5.0.14.0	win	042419	22:25:31	002	1	game	3	selection	561	1	141	141	0	slot1	446	446	1	2	3	-27	-43	-35	-27	-31	-9068	-45	2	3	-45	-32	-25	-29	-43.0518555592490770323	-34.7647841605110912155	-26.5084912278163393751	-26.5317490899204351251
5.0.14.0	win	042419	22:25:31	002	1	game	3	iti	564	1	141	141	0	0	2000	446	1	2	3	-27	-45	-35	-27	-31	-9068	-45	2	3	-45	-32	-25	-29	-43.0518555592490770323	-34.7647841605110912155	-26.5084912278163393751	-26.5317490899204351251
5.0.14.0	win	042419	22:25:31	002	1	game	3	selection	565	1	142	142	0	slot1	414	414	1	2	3	-27	-45	-35	-27	-31	-9101	-33	2	3	-33	-35	-21	-29	-42.820091683376723779	-35.2900379705295321742	-23.6721470400001017254	-26.2988733849952716071
5.0.14.0	win	042419	22:25:31	002	1	game	3	iti	568	1	142	142	0	0	2000	414	1	2	3	-27	-33	-35	-27	-31	-9101	-33	2	3	-33	-35	-21	-29	-42.820091683376723779	-35.2900379705295321742	-23.6721470400001017254	-26.2988733849952716071
5.0.14.0	win	042419	22:25:31	002	1	game	3	selection	569	1	143	143	0	slot1	385	385	1	2	3	-27	-33	-35	-27	-31	-9142	-41	2	3	-41	-36	-12	-32	-38.9373477853435474572	-35.2171196915497688451	-21.9746488493111939988	-25.547758257482808375
5.0.14.0	win	042419	22:25:31	002	1	game	3	iti	572	1	143	143	0	0	2000	385	1	2	3	-27	-41	-35	-27	-31	-9142	-41	2	3	-41	-36	-12	-32	-38.9373477853435474572	-35.2171196915497688451	-21.9746488493111939988	-25.547758257482808375
5.0.14.0	win	042419	22:25:31	002	1	game	3	selection	573	1	144	144	0	slot1	667	667	1	2	3	-27	-41	-35	-27	-31	-9180	-38	2	3	-38	-46	-18	-29	-35.0374153331850166637	-39.2240770537034180165	-22.0682383689885703859	-32.6436636268997801835
5.0.14.0	win	042419	22:25:31	002	1	game	3	iti	576	1	144	144	0	0	2000	667	1	2	3	-27	-38	-35	-27	-31	-9180	-38	2	3	-38	-46	-18	-29	-35.0374153331850166637	-39.2240770537034180165	-22.0682383689885703859	-32.6436636268997801835
5.0.14.0	win	042419	22:25:31	002	1	game	3	selection	577	1	145	145	0	slot1	564	564	1	2	3	-27	-38	-35	-27	-31	-9223	-43	2	3	-43	-42	-27	-36	-43.0696349347701996635	-42.7021980731556567434	-24.4964692469778313466	-36.9285377747620344735
5.0.14.0	win	042419	22:25:31	002	1	game	3	iti	580	1	145	145	0	0	2000	564	1	2	3	-27	-43	-35	-27	-31	-9223	-43	2	3	-43	-42	-27	-36	-43.0696349347701996635	-42.7021980731556567434	-24.4964692469778313466	-36.9285377747620344735
5.0.14.0	win	042419	22:25:31	002	1	game	3	selection	581	1	146	146	0	slot1	392	392	1	2	3	-27	-43	-35	-27	-31	-9271	-48	2	3	-48	-39	-18	-43	-41.1549749646337303943	-42.2547611845719544021	-19.8605951213648985743	-40.132364592440652018
5.0.14.0	win	042419	22:25:31	002	1	game	3	iti	584	1	146	146	0	0	2000	392	1	2	3	-27	-48	-35	-27	-31	-9271	-48	2	3	-48	-39	-18	-43	-41.1549749646337303943	-42.2547611845719544021	-19.8605951213648985743	-40.132364592440652018
5.0.14.0	win	042419	22:25:31	002	1	game	3	selection	585	1	147	147	0	slot1	404	404	1	2	3	-27	-48	-35	-27	-31	-9310	-39	2	3	-39	-38	-26	-44	-40.1779104080691169543	-41.7376770673568913139	-22.7578880557040399424	-43.2790327068192368642
5.0.14.0	win	042419	22:25:31	002	1	game	3	iti	588	1	147	147	0	0	2000	404	1	2	3	-27	-39	-35	-27	-31	-9310	-39	2	3	-39	-38	-26	-44	-40.1779104080691169543	-41.7376770673568913139	-22.7578880557040399424	-43.2790327068192368642
5.0.14.0	win	042419	22:25:31	002	1	game	3	selection	589	1	148	148	0	slot1	385	385	1	2	3	-27	-39	-35	-27	-31	-9346	-36	2	3	-36	-30	-26	-42	-38.5624255146831842467	-35.8638334349970619996	-23.0251228057004837524	-39.1561889389981132581
5.0.14.0	win	042419	22:25:31	002	1	game	3	iti	592	1	148	148	0	0	2000	385	1	2	3	-27	-36	-35	-27	-31	-9346	-36	2	3	-36	-30	-26	-42	-38.5624255146831842467	-35.8638334349970619996	-23.0251228057004837524	-39.1561889389981132581
5.0.14.0	win	042419	22:25:31	002	1	game	3	selection	593	1	149	149	0	slot4	1190	1190	4	2	3	-27	-36	-35	-27	-31	-9386	-40	2	3	-48	-41	-24	-40	-38.3118371214634123589	-38.9118753696917138996	-25.1954407201670811389	-38.9509684859153466618
5.0.14.0	win	042419	22:25:31	002	1	game	3	iti	596	1	149	149	0	0	2000	1190	4	2	3	-27	-36	-35	-27	-40	-9386	-40	2	3	-48	-41	-24	-40	-38.3118371214634123589	-38.9118753696917138996	-25.1954407201670811389	-38.9509684859153466618
5.0.14.0	win	042419	22:25:31	002	1	game	3	selection	597	1	150	150	0	slot4	386	386	4	2	3	-27	-36	-35	-27	-40	-9423	-37	2	3	-38	-49	-23	-37	-38.3285967807069596347	-42.0257979429045605002	-23.7158709683650599231	-36.2640760011649234684
5.0.14.0	win	042419	22:25:31	002	1	game	3	iti	600	1	150	150	0	0	2000	386	4	2	3	-27	-36	-35	-27	-37	-9423	-37	2	3	-38	-49	-23	-37	-38.3285967807069596347	-42.0257979429045605002	-23.7158709683650599231	-36.2640760011649234684
