build	computer.platform	date	time	subject	group	blockcode	blocknum	trialcode	trialnum	values.countRounds	values.TotaltrialCount	values.trialCount_perRound	values.noResponseCount	response	latency	values.selectionRT	values.selectedSlot	values.choice	values.currenthighestSeenPayOffSlot	values.currenthighestSeenPayOff	values.lastSeenPayOff1	values.lastSeenPayOff2	values.lastSeenPayOff3	values.lastSeenPayOff4	values.total	values.currentPayoff	values.highestPayOffSelected	values.currentHighestPayOffSlot	values.payOff1	values.payOff2	values.payOff3	values.payOff4	values.mean1	values.mean2	values.mean3	values.mean4
5.0.14.0	win	042419	23:21:44	005	1	demo	1	selection	2	0	1	1	0	slot1	472	472	1	2	0	0	0	0	0	0	31	31	2	4	31	6	25	44	30.7259965469230600377	9.2721517261917547614	21.8831274050805646425	39.5519208921502638532
5.0.14.0	win	042419	23:21:44	005	1	demo	1	iti	5	0	1	1	0	0	2000	472	1	2	1	31	31	0	0	0	31	31	2	4	31	6	25	44	30.7259965469230600377	9.2721517261917547614	21.8831274050805646425	39.5519208921502638532
5.0.14.0	win	042419	23:21:44	005	1	demo	1	selection	6	0	2	2	0	slot2	378	378	2	2	1	31	31	0	0	0	32	1	2	4	32	1	17	40	32.8478136199026309328	9.0152991103314707999	19.4581924475724079571	35.6450523718316816257
5.0.14.0	win	042419	23:21:44	005	1	demo	1	iti	9	0	2	2	0	0	2000	378	2	2	1	31	31	1	0	0	32	1	2	4	32	1	17	40	32.8478136199026309328	9.0152991103314707999	19.4581924475724079571	35.6450523718316816257
5.0.14.0	win	042419	23:21:44	005	1	demo	1	selection	10	0	3	3	0	slot3	320	320	3	2	1	31	31	1	0	0	46	14	2	1	44	8	14	32	39.0358008886330694054	10.82305864468451162	17.4548668340361814444	32.3319700405180938674
5.0.14.0	win	042419	23:21:44	005	1	demo	1	iti	13	0	3	3	0	0	2000	320	3	2	1	31	31	1	14	0	46	14	2	1	44	8	14	32	39.0358008886330694054	10.82305864468451162	17.4548668340361814444	32.3319700405180938674
5.0.14.0	win	042419	23:21:44	005	1	demo	1	selection	14	0	4	4	0	slot4	418	418	4	2	1	31	31	1	14	0	76	30	2	1	37	12	22	30	40.4853847232755796881	10.7083263970883457716	21.5040567636460266954	31.8442715235502582516
5.0.14.0	win	042419	23:21:44	005	1	demo	1	iti	17	0	4	4	0	0	2000	418	4	2	1	31	31	1	14	30	76	30	2	1	37	12	22	30	40.4853847232755796881	10.7083263970883457716	21.5040567636460266954	31.8442715235502582516
5.0.14.0	win	042419	23:21:44	005	1	demo	1	selection	18	0	5	5	0	slot1	982	982	1	1	1	31	31	1	14	30	115	39	1	1	39	10	31	32	39.5791668236803886316	16.6635279743206616843	28.5798479411463546285	34.078142403890950618
5.0.14.0	win	042419	23:21:44	005	1	demo	1	iti	21	0	5	5	0	0	2000	982	1	1	1	39	39	1	14	30	115	39	1	1	39	10	31	32	39.5791668236803886316	16.6635279743206616843	28.5798479411463546285	34.078142403890950618
5.0.14.0	win	042419	23:21:44	005	1	game	3	selection	1	1	1	1	0	slot1	508	508	1	2	0	0	0	0	0	0	19	19	2	4	19	59	34	80	17.531902411971614697	57.6987203283875942361	43.7294615413238432211	79.3985418948547732043
5.0.14.0	win	042419	23:21:44	005	1	game	3	iti	4	1	1	1	0	0	2000	508	1	2	1	19	19	0	0	0	19	19	2	4	19	59	34	80	17.531902411971614697	57.6987203283875942361	43.7294615413238432211	79.3985418948547732043
5.0.14.0	win	042419	23:21:44	005	1	game	3	selection	5	1	2	2	0	slot2	343	343	2	2	1	19	19	0	0	0	74	55	2	4	10	55	41	78	14.847479336064861144	52.599320510821748087	44.0647052660424094483	75.8010752597864154723
5.0.14.0	win	042419	23:21:44	005	1	game	3	iti	8	1	2	2	0	0	2000	343	2	2	2	55	19	55	0	0	74	55	2	4	10	55	41	78	14.847479336064861144	52.599320510821748087	44.0647052660424094483	75.8010752597864154723
5.0.14.0	win	042419	23:21:44	005	1	game	3	selection	9	1	3	3	0	slot2	440	440	2	1	2	55	19	55	0	0	126	52	2	4	22	52	54	73	12.8022856004850247302	56.6862696434055592931	45.6998990236499764706	76.4424330923160226803
5.0.14.0	win	042419	23:21:44	005	1	game	3	iti	12	1	3	3	0	0	2000	440	2	1	2	52	19	52	0	0	126	52	2	4	22	52	54	73	12.8022856004850247302	56.6862696434055592931	45.6998990236499764706	76.4424330923160226803
5.0.14.0	win	042419	23:21:44	005	1	game	3	selection	13	1	4	4	0	slot4	583	583	4	2	2	52	19	52	0	0	200	74	1	4	15	52	48	74	15.5464590663399881976	54.9969781026650608169	44.7021605852266645797	76.615198531840889018
5.0.14.0	win	042419	23:21:44	005	1	game	3	iti	16	1	4	4	0	0	2000	583	4	2	4	74	19	52	0	74	200	74	1	4	15	52	48	74	15.5464590663399881976	54.9969781026650608169	44.7021605852266645797	76.615198531840889018
5.0.14.0	win	042419	23:21:44	005	1	game	3	selection	17	1	5	5	0	slot4	327	327	4	1	4	74	19	52	0	74	270	70	1	4	23	60	46	70	19.8566510611062341241	58.5163420213600247166	45.5044797211646709911	79.0273209369132985103
5.0.14.0	win	042419	23:21:44	005	1	game	3	iti	20	1	5	5	0	0	2000	327	4	1	4	70	19	52	0	70	270	70	1	4	23	60	46	70	19.8566510611062341241	58.5163420213600247166	45.5044797211646709911	79.0273209369132985103
5.0.14.0	win	042419	23:21:44	005	1	game	3	selection	21	1	6	6	0	slot4	597	597	4	1	4	70	19	52	0	70	348	78	1	4	10	59	50	78	16.4652592915722664202	58.5310971995380455724	48.6691910025574188126	79.5069992528550812949
5.0.14.0	win	042419	23:21:44	005	1	game	3	iti	24	1	6	6	0	0	2000	597	4	1	4	78	19	52	0	78	348	78	1	4	10	59	50	78	16.4652592915722664202	58.5310971995380455724	48.6691910025574188126	79.5069992528550812949
5.0.14.0	win	042419	23:21:44	005	1	game	3	selection	25	1	7	7	0	slot4	296	296	4	1	4	78	19	52	0	78	425	77	1	4	14	57	40	77	18.4560460680988178694	57.8610601896614511475	43.6896713582869153925	77.3919933725533013558
5.0.14.0	win	042419	23:21:44	005	1	game	3	iti	28	1	7	7	0	0	2000	296	4	1	4	77	19	52	0	77	425	77	1	4	14	57	40	77	18.4560460680988178694	57.8610601896614511475	43.6896713582869153925	77.3919933725533013558
5.0.14.0	win	042419	23:21:44	005	1	game	3	selection	29	1	8	8	0	slot4	514	514	4	1	4	77	19	52	0	77	502	77	1	4	11	61	44	77	17.0821983686376803746	60.2270841176282445417	47.0992408576170404899	79.3049506800780932281
5.0.14.0	win	042419	23:21:44	005	1	game	3	iti	32	1	8	8	0	0	2000	514	4	1	4	77	19	52	0	77	502	77	1	4	11	61	44	77	17.0821983686376803746	60.2270841176282445417	47.0992408576170404899	79.3049506800780932281
5.0.14.0	win	042419	23:21:44	005	1	game	3	selection	33	1	9	9	0	slot4	292	292	4	1	4	77	19	52	0	77	582	80	1	4	18	63	42	80	16.1797893419696556805	62.0999731474260912023	48.1296427453861710433	81.6659137809487560844
5.0.14.0	win	042419	23:21:44	005	1	game	3	iti	36	1	9	9	0	0	2000	292	4	1	4	80	19	52	0	80	582	80	1	4	18	63	42	80	16.1797893419696556805	62.0999731474260912023	48.1296427453861710433	81.6659137809487560844
5.0.14.0	win	042419	23:21:44	005	1	game	3	selection	37	1	10	10	0	slot4	388	388	4	1	4	80	19	52	0	80	661	79	1	4	12	64	53	79	12.9172272852020331158	58.509402800482050111	48.386989166053446354	81.7464975749558107054
5.0.14.0	win	042419	23:21:44	005	1	game	3	iti	40	1	10	10	0	0	2000	388	4	1	4	79	19	52	0	79	661	79	1	4	12	64	53	79	12.9172272852020331158	58.509402800482050111	48.386989166053446354	81.7464975749558107054
5.0.14.0	win	042419	23:21:44	005	1	game	3	selection	41	1	11	11	0	slot4	349	349	4	1	4	79	19	52	0	79	750	89	1	4	23	55	49	89	16.0176470248848303868	55.8276791580433311424	47.7246473685077532423	81.803957647720579871
5.0.14.0	win	042419	23:21:44	005	1	game	3	iti	44	1	11	11	0	0	2000	349	4	1	4	89	19	52	0	89	750	89	1	4	23	55	49	89	16.0176470248848303868	55.8276791580433311424	47.7246473685077532423	81.803957647720579871
5.0.14.0	win	042419	23:21:44	005	1	game	3	selection	45	1	12	12	0	slot4	234	234	4	1	4	89	19	52	0	89	827	77	1	4	20	52	44	77	13.6355479026843440238	47.9148085989303282872	45.6613474329696131804	85.3352773994094064847
5.0.14.0	win	042419	23:21:44	005	1	game	3	iti	48	1	12	12	0	0	2000	234	4	1	4	77	19	52	0	77	827	77	1	4	20	52	44	77	13.6355479026843440238	47.9148085989303282872	45.6613474329696131804	85.3352773994094064847
5.0.14.0	win	042419	23:21:44	005	1	game	3	selection	49	1	13	13	0	slot4	682	682	4	1	4	77	19	52	0	77	907	80	1	4	16	55	41	80	15.4946502208499374831	49.7588796801421864302	44.1096967992110577939	85.8364921449032891587
5.0.14.0	win	042419	23:21:44	005	1	game	3	iti	52	1	13	13	0	0	2000	682	4	1	4	80	19	52	0	80	907	80	1	4	16	55	41	80	15.4946502208499374831	49.7588796801421864302	44.1096967992110577939	85.8364921449032891587
5.0.14.0	win	042419	23:21:44	005	1	game	3	selection	53	1	14	14	0	slot4	612	612	4	1	4	80	19	52	0	80	992	85	1	4	14	48	57	85	15.7700172411515051607	47.0705444476237744311	46.5787528314598660018	84.8293575024664221473
5.0.14.0	win	042419	23:21:44	005	1	game	3	iti	56	1	14	14	0	0	2000	612	4	1	4	85	19	52	0	85	992	85	1	4	14	48	57	85	15.7700172411515051607	47.0705444476237744311	46.5787528314598660018	84.8293575024664221473
5.0.14.0	win	042419	23:21:44	005	1	game	3	selection	57	1	15	15	0	slot4	292	292	4	1	4	85	19	52	0	85	1073	81	1	4	13	50	44	81	17.5562429260877692627	49.5383829337489913769	41.1357421066350994465	79.1370433083555155918
5.0.14.0	win	042419	23:21:44	005	1	game	3	iti	60	1	15	15	0	0	2000	292	4	1	4	81	19	52	0	81	1073	81	1	4	13	50	44	81	17.5562429260877692627	49.5383829337489913769	41.1357421066350994465	79.1370433083555155918
5.0.14.0	win	042419	23:21:44	005	1	game	3	selection	61	1	16	16	0	slot4	486	486	4	1	4	81	19	52	0	81	1152	79	1	4	10	56	44	79	16.5860628329167418826	54.1118082575247854038	41.0661048951404339391	80.725934027673886817
5.0.14.0	win	042419	23:21:44	005	1	game	3	iti	64	1	16	16	0	0	2000	486	4	1	4	79	19	52	0	79	1152	79	1	4	10	56	44	79	16.5860628329167418826	54.1118082575247854038	41.0661048951404339391	80.725934027673886817
5.0.14.0	win	042419	23:21:44	005	1	game	3	selection	65	1	17	17	0	slot4	418	418	4	1	4	79	19	52	0	79	1232	80	1	4	21	55	47	80	16.9380525940412383079	50.4464094327270586859	41.6367890568513203675	79.1711097517731019479
5.0.14.0	win	042419	23:21:44	005	1	game	3	iti	68	1	17	17	0	0	2000	418	4	1	4	80	19	52	0	80	1232	80	1	4	21	55	47	80	16.9380525940412383079	50.4464094327270586859	41.6367890568513203675	79.1711097517731019479
5.0.14.0	win	042419	23:21:44	005	1	game	3	selection	69	1	18	18	0	slot4	468	468	4	1	4	80	19	52	0	80	1300	68	1	4	11	57	46	68	13.1155503209874702009	51.6960346592942272537	43.5424229583785233899	73.4364889423525539769
5.0.14.0	win	042419	23:21:44	005	1	game	3	iti	72	1	18	18	0	0	2000	468	4	1	4	68	19	52	0	68	1300	68	1	4	11	57	46	68	13.1155503209874702009	51.6960346592942272537	43.5424229583785233899	73.4364889423525539769
5.0.14.0	win	042419	23:21:44	005	1	game	3	selection	73	1	19	19	0	slot4	717	717	4	1	4	68	19	52	0	68	1381	81	1	4	13	56	41	81	13.4104173201598939613	53.5588984320640335568	39.2135344250989703596	72.1691232531230610903
5.0.14.0	win	042419	23:21:44	005	1	game	3	iti	76	1	19	19	0	0	2000	717	4	1	4	81	19	52	0	81	1381	81	1	4	13	56	41	81	13.4104173201598939613	53.5588984320640335568	39.2135344250989703596	72.1691232531230610903
5.0.14.0	win	042419	23:21:44	005	1	game	3	selection	77	1	20	20	0	slot4	416	416	4	1	4	81	19	52	0	81	1458	77	1	4	12	61	38	77	11.6944317689226533474	54.3368225433135094704	37.4627905352499013247	74.9182279689044179349
5.0.14.0	win	042419	23:21:44	005	1	game	3	iti	80	1	20	20	0	0	2000	416	4	1	4	77	19	52	0	77	1458	77	1	4	12	61	38	77	11.6944317689226533474	54.3368225433135094704	37.4627905352499013247	74.9182279689044179349
5.0.14.0	win	042419	23:21:44	005	1	game	3	selection	81	1	21	21	0	slot4	562	562	4	1	4	77	19	52	0	77	1529	71	1	4	5	56	29	71	11.7403192388856325579	54.9052583257213129286	34.9829490964214784299	75.0326562528671558994
5.0.14.0	win	042419	23:21:44	005	1	game	3	iti	84	1	21	21	0	0	2000	562	4	1	4	71	19	52	0	71	1529	71	1	4	5	56	29	71	11.7403192388856325579	54.9052583257213129286	34.9829490964214784299	75.0326562528671558994
5.0.14.0	win	042419	23:21:44	005	1	game	3	selection	85	1	22	22	0	slot4	291	291	4	1	4	71	19	52	0	71	1591	62	1	4	13	61	41	62	11.5372424353199267699	61.9842184938746925127	39.5243489189335548417	68.2215378976145672141
5.0.14.0	win	042419	23:21:44	005	1	game	3	iti	88	1	22	22	0	0	2000	291	4	1	4	62	19	52	0	62	1591	62	1	4	13	61	41	62	11.5372424353199267699	61.9842184938746925127	39.5243489189335548417	68.2215378976145672141
5.0.14.0	win	042419	23:21:44	005	1	game	3	selection	89	1	23	23	0	slot4	432	432	4	1	4	62	19	52	0	62	1653	62	2	2	17	63	43	62	13.8328985940982747138	64.8484085291547103225	42.2466969327984571692	68.5829317935084645796
5.0.14.0	win	042419	23:21:44	005	1	game	3	iti	92	1	23	23	0	0	2000	432	4	1	4	62	19	52	0	62	1653	62	2	2	17	63	43	62	13.8328985940982747138	64.8484085291547103225	42.2466969327984571692	68.5829317935084645796
5.0.14.0	win	042419	23:21:44	005	1	game	3	selection	93	1	24	24	0	slot4	278	278	4	1	4	62	19	52	0	62	1721	68	2	2	10	74	41	68	7.9240589536740717591	67.4993264671890216277	41.1147069593079237393	64.7611881013906582893
5.0.14.0	win	042419	23:21:44	005	1	game	3	iti	96	1	24	24	0	0	2000	278	4	1	4	68	19	52	0	68	1721	68	2	2	10	74	41	68	7.9240589536740717591	67.4993264671890216277	41.1147069593079237393	64.7611881013906582893
5.0.14.0	win	042419	23:21:44	005	1	game	3	selection	97	1	25	25	0	slot4	1146	1146	4	1	4	68	19	52	0	68	1791	70	1	4	8	68	44	70	10.7472837882196401438	64.2312571842910244868	46.689767576949151362	62.8167652978767350191
5.0.14.0	win	042419	23:21:44	005	1	game	3	iti	100	1	25	25	0	0	2000	1146	4	1	4	70	19	52	0	70	1791	70	1	4	8	68	44	70	10.7472837882196401438	64.2312571842910244868	46.689767576949151362	62.8167652978767350191
5.0.14.0	win	042419	23:21:44	005	1	game	3	selection	101	1	26	26	0	slot4	399	399	4	1	4	70	19	52	0	70	1853	62	1	4	14	59	46	62	10.8550384526288183906	60.032200601944907703	49.5500670352206427083	61.0394734278918136283
5.0.14.0	win	042419	23:21:44	005	1	game	3	iti	104	1	26	26	0	0	2000	399	4	1	4	62	19	52	0	62	1853	62	1	4	14	59	46	62	10.8550384526288183906	60.032200601944907703	49.5500670352206427083	61.0394734278918136283
5.0.14.0	win	042419	23:21:44	005	1	game	3	selection	105	1	27	27	0	slot4	500	500	4	1	4	62	19	52	0	62	1921	68	1	4	10	59	46	68	11.4373308205089774248	58.7047078425479966768	48.8073936148860738626	61.6511946815224689544
5.0.14.0	win	042419	23:21:44	005	1	game	3	iti	108	1	27	27	0	0	2000	500	4	1	4	68	19	52	0	68	1921	68	1	4	10	59	46	68	11.4373308205089774248	58.7047078425479966768	48.8073936148860738626	61.6511946815224689544
5.0.14.0	win	042419	23:21:44	005	1	game	3	selection	109	1	28	28	0	slot4	267	267	4	1	4	68	19	52	0	68	1988	67	1	4	10	56	43	67	10.3500825724520311155	62.943358125072528253	47.0562472185542972625	66.5636668012883205847
5.0.14.0	win	042419	23:21:44	005	1	game	3	iti	112	1	28	28	0	0	2000	267	4	1	4	67	19	52	0	67	1988	67	1	4	10	56	43	67	10.3500825724520311155	62.943358125072528253	47.0562472185542972625	66.5636668012883205847
5.0.14.0	win	042419	23:21:44	005	1	game	3	selection	113	1	29	29	0	slot4	370	370	4	1	4	67	19	52	0	67	2051	63	1	4	9	59	41	63	10.804294872238937586	62.3694117096301710035	44.3005052794183171727	66.2967368366809637337
5.0.14.0	win	042419	23:21:44	005	1	game	3	iti	116	1	29	29	0	0	2000	370	4	1	4	63	19	52	0	63	2051	63	1	4	9	59	41	63	10.804294872238937586	62.3694117096301710035	44.3005052794183171727	66.2967368366809637337
5.0.14.0	win	042419	23:21:44	005	1	game	3	selection	117	1	30	30	0	slot4	362	362	4	1	4	63	19	52	0	63	2123	72	1	4	15	57	42	72	13.2636575444089181985	56.6246069156878562012	41.6618487059455944177	68.304787664421795057
5.0.14.0	win	042419	23:21:44	005	1	game	3	iti	120	1	30	30	0	0	2000	362	4	1	4	72	19	52	0	72	2123	72	1	4	15	57	42	72	13.2636575444089181985	56.6246069156878562012	41.6618487059455944177	68.304787664421795057
5.0.14.0	win	042419	23:21:44	005	1	game	3	selection	121	1	31	31	0	slot4	423	423	4	1	4	72	19	52	0	72	2196	73	1	4	9	58	41	73	12.3440142040950266988	57.6494008483858237923	41.7068914808876982647	70.5889504016277413712
5.0.14.0	win	042419	23:21:44	005	1	game	3	iti	124	1	31	31	0	0	2000	423	4	1	4	73	19	52	0	73	2196	73	1	4	9	58	41	73	12.3440142040950266988	57.6494008483858237923	41.7068914808876982647	70.5889504016277413712
5.0.14.0	win	042419	23:21:44	005	1	game	3	selection	125	1	32	32	0	slot4	315	315	4	1	4	73	19	52	0	73	2264	68	1	4	16	52	43	68	10.7617078236006200598	56.0205888872547745905	40.0704051336165605335	70.300257366813454496
5.0.14.0	win	042419	23:21:44	005	1	game	3	iti	128	1	32	32	0	0	2000	315	4	1	4	68	19	52	0	68	2264	68	1	4	16	52	43	68	10.7617078236006200598	56.0205888872547745905	40.0704051336165605335	70.300257366813454496
5.0.14.0	win	042419	23:21:44	005	1	game	3	selection	129	1	33	33	0	slot4	867	867	4	1	4	68	19	52	0	68	2330	66	1	4	6	57	41	66	11.1797364505861835937	55.2109851560740239051	38.9185698299345830264	65.1772325760013444551
5.0.14.0	win	042419	23:21:44	005	1	game	3	iti	132	1	33	33	0	0	2000	867	4	1	4	66	19	52	0	66	2330	66	1	4	6	57	41	66	11.1797364505861835937	55.2109851560740239051	38.9185698299345830264	65.1772325760013444551
5.0.14.0	win	042419	23:21:44	005	1	game	3	selection	133	1	34	34	0	slot4	627	627	4	1	4	66	19	52	0	66	2393	63	1	4	14	57	37	63	11.3863673138098882021	53.4178001714230532571	39.3322558545320646317	62.8666264075825083069
5.0.14.0	win	042419	23:21:44	005	1	game	3	iti	136	1	34	34	0	0	2000	627	4	1	4	63	19	52	0	63	2393	63	1	4	14	57	37	63	11.3863673138098882021	53.4178001714230532571	39.3322558545320646317	62.8666264075825083069
5.0.14.0	win	042419	23:21:44	005	1	game	3	selection	137	1	35	35	0	slot4	584	584	4	1	4	63	19	52	0	63	2449	56	1	4	16	55	37	56	12.8712353351236892252	55.2862703453983357349	38.8789835114855577558	60.4134948573795469429
5.0.14.0	win	042419	23:21:44	005	1	game	3	iti	140	1	35	35	0	0	2000	584	4	1	4	56	19	52	0	56	2449	56	1	4	16	55	37	56	12.8712353351236892252	55.2862703453983357349	38.8789835114855577558	60.4134948573795469429
5.0.14.0	win	042419	23:21:44	005	1	game	3	selection	141	1	36	36	0	slot4	297	297	4	1	4	56	19	52	0	56	2520	71	1	4	14	59	34	71	11.2126655891913209473	59.1188356650376434231	37.7143829625412578821	63.3486594507180171831
5.0.14.0	win	042419	23:21:44	005	1	game	3	iti	144	1	36	36	0	0	2000	297	4	1	4	71	19	52	0	71	2520	71	1	4	14	59	34	71	11.2126655891913209473	59.1188356650376434231	37.7143829625412578821	63.3486594507180171831
5.0.14.0	win	042419	23:21:44	005	1	game	3	selection	145	1	37	37	0	slot4	344	344	4	1	4	71	19	52	0	71	2581	61	1	4	5	56	34	61	9.6545242399932789112	58.6383851607374282366	37.2297843995298478603	60.5332978218688069205
5.0.14.0	win	042419	23:21:44	005	1	game	3	iti	148	1	37	37	0	0	2000	344	4	1	4	61	19	52	0	61	2581	61	1	4	5	56	34	61	9.6545242399932789112	58.6383851607374282366	37.2297843995298478603	60.5332978218688069205
5.0.14.0	win	042419	23:21:44	005	1	game	3	selection	149	1	38	38	0	slot4	309	309	4	1	4	61	19	52	0	61	2639	58	2	2	8	61	43	58	9.0177041192767308786	59.7935836885844054223	38.6463018250528946851	61.0122853452745488312
5.0.14.0	win	042419	23:21:44	005	1	game	3	iti	152	1	38	38	0	0	2000	309	4	1	4	58	19	52	0	58	2639	58	2	2	8	61	43	58	9.0177041192767308786	59.7935836885844054223	38.6463018250528946851	61.0122853452745488312
5.0.14.0	win	042419	23:21:44	005	1	game	3	selection	153	1	39	39	0	slot4	577	577	4	1	4	58	19	52	0	58	2694	55	2	2	14	56	39	55	9.8767284316861090332	59.0754631379090753285	39.3159303207333579167	60.965642309341831151
5.0.14.0	win	042419	23:21:44	005	1	game	3	iti	156	1	39	39	0	0	2000	577	4	1	4	55	19	52	0	55	2694	55	2	2	14	56	39	55	9.8767284316861090332	59.0754631379090753285	39.3159303207333579167	60.965642309341831151
5.0.14.0	win	042419	23:21:44	005	1	game	3	selection	157	1	40	40	0	slot4	368	368	4	1	4	55	19	52	0	55	2764	70	1	4	11	59	45	70	7.5325472912803306258	54.3617032405388940219	38.2323417593309855533	58.5595155931240398672
5.0.14.0	win	042419	23:21:44	005	1	game	3	iti	160	1	40	40	0	0	2000	368	4	1	4	70	19	52	0	70	2764	70	1	4	11	59	45	70	7.5325472912803306258	54.3617032405388940219	38.2323417593309855533	58.5595155931240398672
5.0.14.0	win	042419	23:21:44	005	1	game	3	selection	161	1	41	41	0	slot4	568	568	4	1	4	70	19	52	0	70	2829	65	1	4	4	47	37	65	6.0135354316001707886	54.154706036341153208	38.0220177089310880092	59.6972417407641842146
5.0.14.0	win	042419	23:21:44	005	1	game	3	iti	164	1	41	41	0	0	2000	568	4	1	4	65	19	52	0	65	2829	65	1	4	4	47	37	65	6.0135354316001707886	54.154706036341153208	38.0220177089310880092	59.6972417407641842146
5.0.14.0	win	042419	23:21:44	005	1	game	3	selection	165	1	42	42	0	slot4	503	503	4	1	4	65	19	52	0	65	2888	59	1	4	10	52	39	59	11.5209241255085110822	53.4259980461802754803	32.7086079070968054339	59.5381429144726084246
5.0.14.0	win	042419	23:21:44	005	1	game	3	iti	168	1	42	42	0	0	2000	503	4	1	4	59	19	52	0	59	2888	59	1	4	10	52	39	59	11.5209241255085110822	53.4259980461802754803	32.7086079070968054339	59.5381429144726084246
5.0.14.0	win	042419	23:21:44	005	1	game	3	selection	169	1	43	43	0	slot4	265	265	4	1	4	59	19	52	0	59	2955	67	1	4	8	48	30	67	8.2479736515062374025	50.2994959297211252647	32.8715518286382177848	63.7707046186014494538
5.0.14.0	win	042419	23:21:44	005	1	game	3	iti	172	1	43	43	0	0	2000	265	4	1	4	67	19	52	0	67	2955	67	1	4	8	48	30	67	8.2479736515062374025	50.2994959297211252647	32.8715518286382177848	63.7707046186014494538
5.0.14.0	win	042419	23:21:44	005	1	game	3	selection	173	1	44	44	0	slot4	485	485	4	1	4	67	19	52	0	67	3026	71	1	4	12	52	36	71	8.5505204004167261189	55.128255080133008903	32.7759252183053533258	62.426749068009343091
5.0.14.0	win	042419	23:21:44	005	1	game	3	iti	176	1	44	44	0	0	2000	485	4	1	4	71	19	52	0	71	3026	71	1	4	12	52	36	71	8.5505204004167261189	55.128255080133008903	32.7759252183053533258	62.426749068009343091
5.0.14.0	win	042419	23:21:44	005	1	game	3	selection	177	1	45	45	0	slot4	527	527	4	1	4	71	19	52	0	71	3092	66	1	4	6	49	33	66	10.0568778017008888526	54.9015866015530349387	33.3645167570471343765	66.2295877752075199396
5.0.14.0	win	042419	23:21:44	005	1	game	3	iti	180	1	45	45	0	0	2000	527	4	1	4	66	19	52	0	66	3092	66	1	4	6	49	33	66	10.0568778017008888526	54.9015866015530349387	33.3645167570471343765	66.2295877752075199396
5.0.14.0	win	042419	23:21:44	005	1	game	3	selection	181	1	46	46	0	slot4	341	341	4	1	4	66	19	52	0	66	3166	74	1	4	5	64	32	74	11.4624954635735427644	56.7124943315449314696	35.630032832705005319	68.7901786090446734079
5.0.14.0	win	042419	23:21:44	005	1	game	3	iti	184	1	46	46	0	0	2000	341	4	1	4	74	19	52	0	74	3166	74	1	4	5	64	32	74	11.4624954635735427644	56.7124943315449314696	35.630032832705005319	68.7901786090446734079
5.0.14.0	win	042419	23:21:44	005	1	game	3	selection	185	1	47	47	0	slot4	438	438	4	1	4	74	19	52	0	74	3234	68	1	4	24	57	32	68	15.8995550981137796498	53.6964049593351262502	33.9494225236578799354	67.634143063742115487
5.0.14.0	win	042419	23:21:44	005	1	game	3	iti	188	1	47	47	0	0	2000	438	4	1	4	68	19	52	0	68	3234	68	1	4	24	57	32	68	15.8995550981137796498	53.6964049593351262502	33.9494225236578799354	67.634143063742115487
5.0.14.0	win	042419	23:21:44	005	1	game	3	selection	189	1	48	48	0	slot4	419	419	4	1	4	68	19	52	0	68	3285	51	2	2	13	53	32	51	14.1625454067382143819	51.9518241238000655358	26.8017997656480204682	62.2236942561131129992
5.0.14.0	win	042419	23:21:44	005	1	game	3	iti	192	1	48	48	0	0	2000	419	4	1	2	52	19	52	0	51	3285	51	2	2	13	53	32	51	14.1625454067382143819	51.9518241238000655358	26.8017997656480204682	62.2236942561131129992
5.0.14.0	win	042419	23:21:44	005	1	game	3	selection	193	1	49	49	0	slot4	343	343	4	2	2	52	19	52	0	51	3349	64	1	4	14	50	26	64	14.211326228159203211	46.5930031351593783029	26.0849129605911969065	63.1364074103394088411
5.0.14.0	win	042419	23:21:44	005	1	game	3	iti	196	1	49	49	0	0	2000	343	4	2	4	64	19	52	0	64	3349	64	1	4	14	50	26	64	14.211326228159203211	46.5930031351593783029	26.0849129605911969065	63.1364074103394088411
5.0.14.0	win	042419	23:21:44	005	1	game	3	selection	197	1	50	50	0	slot4	370	370	4	1	4	64	19	52	0	64	3410	61	1	4	19	45	27	61	14.3822987748272037578	41.1682445129756615643	25.8518702024299500408	61.811458980189648571
5.0.14.0	win	042419	23:21:44	005	1	game	3	iti	200	1	50	50	0	0	2000	370	4	1	4	61	19	52	0	61	3410	61	1	4	19	45	27	61	14.3822987748272037578	41.1682445129756615643	25.8518702024299500408	61.811458980189648571
5.0.14.0	win	042419	23:21:44	005	1	game	3	selection	201	1	51	51	0	slot4	296	296	4	1	4	61	19	52	0	61	3468	58	1	4	20	53	27	58	17.4006731267839640509	46.9365637554181986957	24.7316631005184817127	63.3283852036017052001
5.0.14.0	win	042419	23:21:44	005	1	game	3	iti	204	1	51	51	0	0	2000	296	4	1	4	58	19	52	0	58	3468	58	1	4	20	53	27	58	17.4006731267839640509	46.9365637554181986957	24.7316631005184817127	63.3283852036017052001
5.0.14.0	win	042419	23:21:44	005	1	game	3	selection	205	1	52	52	0	slot4	282	282	4	1	4	58	19	52	0	58	3530	62	1	4	15	49	29	62	16.3236882419307924863	49.5135797962116299686	26.5075479678056957766	61.8145267880121878079
5.0.14.0	win	042419	23:21:44	005	1	game	3	iti	208	1	52	52	0	0	2000	282	4	1	4	62	19	52	0	62	3530	62	1	4	15	49	29	62	16.3236882419307924863	49.5135797962116299686	26.5075479678056957766	61.8145267880121878079
5.0.14.0	win	042419	23:21:44	005	1	game	3	selection	209	1	53	53	0	slot4	443	443	4	1	4	62	19	52	0	62	3594	64	1	4	15	54	18	64	16.3516527830561173573	53.0882336793960121213	18.3029195668724469215	63.8932439264275302548
5.0.14.0	win	042419	23:21:44	005	1	game	3	iti	212	1	53	53	0	0	2000	443	4	1	4	64	19	52	0	64	3594	64	1	4	15	54	18	64	16.3516527830561173573	53.0882336793960121213	18.3029195668724469215	63.8932439264275302548
5.0.14.0	win	042419	23:21:44	005	1	game	3	selection	213	1	54	54	0	slot4	298	298	4	1	4	64	19	52	0	64	3652	58	1	4	19	55	17	58	21.1264510812928207883	53.8703346420331286026	17.1995426399104580639	59.1820658099326024626
5.0.14.0	win	042419	23:21:44	005	1	game	3	iti	216	1	54	54	0	0	2000	298	4	1	4	58	19	52	0	58	3652	58	1	4	19	55	17	58	21.1264510812928207883	53.8703346420331286026	17.1995426399104580639	59.1820658099326024626
5.0.14.0	win	042419	23:21:44	005	1	game	3	selection	217	1	55	55	0	slot4	561	561	4	1	4	58	19	52	0	58	3711	59	1	4	28	54	23	59	19.3653156869567553144	56.4284613774529404395	15.6897287863047836254	60.3436683140738381326
5.0.14.0	win	042419	23:21:44	005	1	game	3	iti	220	1	55	55	0	0	2000	561	4	1	4	59	19	52	0	59	3711	59	1	4	28	54	23	59	19.3653156869567553144	56.4284613774529404395	15.6897287863047836254	60.3436683140738381326
5.0.14.0	win	042419	23:21:44	005	1	game	3	selection	221	1	56	56	0	slot4	526	526	4	1	4	59	19	52	0	59	3774	63	1	4	25	60	23	63	25.038345054091319497	60.4609606611187189174	20.1248851517435269898	57.6431106276608176131
5.0.14.0	win	042419	23:21:44	005	1	game	3	iti	224	1	56	56	0	0	2000	526	4	1	4	63	19	52	0	63	3774	63	1	4	25	60	23	63	25.038345054091319497	60.4609606611187189174	20.1248851517435269898	57.6431106276608176131
5.0.14.0	win	042419	23:21:44	005	1	game	3	selection	225	1	57	57	0	slot4	343	343	4	1	4	63	19	52	0	63	3830	56	2	2	28	57	27	56	23.7623344244447842755	60.4381013461707752299	23.2000353200285758248	56.6695048054301793172
5.0.14.0	win	042419	23:21:44	005	1	game	3	iti	228	1	57	57	0	0	2000	343	4	1	4	56	19	52	0	56	3830	56	2	2	28	57	27	56	23.7623344244447842755	60.4381013461707752299	23.2000353200285758248	56.6695048054301793172
5.0.14.0	win	042419	23:21:44	005	1	game	3	selection	229	1	58	58	0	slot4	431	431	4	1	4	56	19	52	0	56	3890	60	2	2	29	62	24	60	24.0467656617594016666	59.2554704913845711189	24.1298079682721748895	58.5175669010784176294
5.0.14.0	win	042419	23:21:44	005	1	game	3	iti	232	1	58	58	0	0	2000	431	4	1	4	60	19	52	0	60	3890	60	2	2	29	62	24	60	24.0467656617594016666	59.2554704913845711189	24.1298079682721748895	58.5175669010784176294
5.0.14.0	win	042419	23:21:44	005	1	game	3	selection	233	1	59	59	0	slot4	621	621	4	1	4	60	19	52	0	60	3943	53	1	4	20	52	25	53	24.354899704471090871	58.8362428237272396814	20.2744873048303233531	53.2840616636693340524
5.0.14.0	win	042419	23:21:44	005	1	game	3	iti	236	1	59	59	0	0	2000	621	4	1	4	53	19	52	0	53	3943	53	1	4	20	52	25	53	24.354899704471090871	58.8362428237272396814	20.2744873048303233531	53.2840616636693340524
5.0.14.0	win	042419	23:21:44	005	1	game	3	selection	237	1	60	60	0	slot2	259	259	2	2	4	53	19	52	0	53	4008	65	1	2	28	65	24	55	26.8811382294488652178	58.8847441225422585376	21.9082068029576682022	54.505261865705186608
5.0.14.0	win	042419	23:21:44	005	1	game	3	iti	240	1	60	60	0	0	2000	259	2	2	2	65	19	65	0	53	4008	65	1	2	28	65	24	55	26.8811382294488652178	58.8847441225422585376	21.9082068029576682022	54.505261865705186608
5.0.14.0	win	042419	23:21:44	005	1	game	3	selection	241	1	61	61	0	slot2	302	302	2	1	2	65	19	65	0	53	4065	57	1	2	30	57	23	51	27.2020012897572946997	54.4676562873749574578	22.6015162572810694996	53.765200352754604296
5.0.14.0	win	042419	23:21:44	005	1	game	3	iti	244	1	61	61	0	0	2000	302	2	1	2	57	19	57	0	53	4065	57	1	2	30	57	23	51	27.2020012897572946997	54.4676562873749574578	22.6015162572810694996	53.765200352754604296
5.0.14.0	win	042419	23:21:44	005	1	game	3	selection	245	1	62	62	0	slot2	270	270	2	1	2	57	19	57	0	53	4113	48	2	4	31	48	29	55	31.9914861061684590027	57.7985519930755984319	23.8149916178118239429	53.905484153615645937
5.0.14.0	win	042419	23:21:44	005	1	game	3	iti	248	1	62	62	0	0	2000	270	2	1	4	53	19	48	0	53	4113	48	2	4	31	48	29	55	31.9914861061684590027	57.7985519930755984319	23.8149916178118239429	53.905484153615645937
5.0.14.0	win	042419	23:21:44	005	1	game	3	selection	249	1	63	63	0	slot2	248	248	2	2	4	53	19	48	0	53	4165	52	2	4	38	52	23	55	33.0846655498075392643	58.487949540772575574	23.1288327649532838848	49.1308659901872459841
5.0.14.0	win	042419	23:21:44	005	1	game	3	iti	252	1	63	63	0	0	2000	248	2	2	4	53	19	52	0	53	4165	52	2	4	38	52	23	55	33.0846655498075392643	58.487949540772575574	23.1288327649532838848	49.1308659901872459841
5.0.14.0	win	042419	23:21:44	005	1	game	3	selection	253	1	64	64	0	slot3	279	279	3	2	4	53	19	52	0	53	4179	14	2	2	35	57	14	48	34.44031156523032422	52.633446139204934866	23.0465080891060054569	50.5742995597661320062
5.0.14.0	win	042419	23:21:44	005	1	game	3	iti	256	1	64	64	0	0	2000	279	3	2	4	53	19	52	14	53	4179	14	2	2	35	57	14	48	34.44031156523032422	52.633446139204934866	23.0465080891060054569	50.5742995597661320062
5.0.14.0	win	042419	23:21:44	005	1	game	3	selection	257	1	65	65	0	slot1	299	299	1	2	4	53	19	52	14	53	4213	34	2	2	34	53	16	46	32.8642010703991260812	50.6244641144294504898	17.9466013383782758694	52.7835070162037922614
5.0.14.0	win	042419	23:21:44	005	1	game	3	iti	260	1	65	65	0	0	2000	299	1	2	4	53	34	52	14	53	4213	34	2	2	34	53	16	46	32.8642010703991260812	50.6244641144294504898	17.9466013383782758694	52.7835070162037922614
5.0.14.0	win	042419	23:21:44	005	1	game	3	selection	261	1	66	66	0	slot2	293	293	2	2	4	53	34	52	14	53	4267	54	2	4	36	54	15	58	36.7213363114242667962	50.1698949699092224819	18.560600698543090914	52.0078099910114275417
5.0.14.0	win	042419	23:21:44	005	1	game	3	iti	264	1	66	66	0	0	2000	293	2	2	2	54	34	54	14	53	4267	54	2	4	36	54	15	58	36.7213363114242667962	50.1698949699092224819	18.560600698543090914	52.0078099910114275417
5.0.14.0	win	042419	23:21:44	005	1	game	3	selection	265	1	67	67	0	slot4	281	281	4	2	2	54	34	54	14	53	4310	43	2	2	40	45	7	43	33.3330359789101038359	49.0920236145899409053	13.9231531123298424291	48.6955831453629741645
5.0.14.0	win	042419	23:21:44	005	1	game	3	iti	268	1	67	67	0	0	2000	281	4	2	2	54	34	54	14	43	4310	43	2	2	40	45	7	43	33.3330359789101038359	49.0920236145899409053	13.9231531123298424291	48.6955831453629741645
5.0.14.0	win	042419	23:21:44	005	1	game	3	selection	269	1	68	68	0	slot2	297	297	2	1	2	54	34	54	14	43	4358	48	2	4	39	48	9	50	36.3913593649968376553	50.3146008920023461997	13.9933805890878684153	46.600684552952031936
5.0.14.0	win	042419	23:21:44	005	1	game	3	iti	272	1	68	68	0	0	2000	297	2	1	2	48	34	48	14	43	4358	48	2	4	39	48	9	50	36.3913593649968376553	50.3146008920023461997	13.9933805890878684153	46.600684552952031936
5.0.14.0	win	042419	23:21:44	005	1	game	3	selection	273	1	69	69	0	slot4	256	256	4	2	2	48	34	48	14	43	4394	36	2	2	46	48	19	36	40.1977008526383130516	52.7548270607304061741	16.174791555447413316	41.5101319737530971565
5.0.14.0	win	042419	23:21:44	005	1	game	3	iti	276	1	69	69	0	0	2000	256	4	2	2	48	34	48	14	36	4394	36	2	2	46	48	19	36	40.1977008526383130516	52.7548270607304061741	16.174791555447413316	41.5101319737530971565
5.0.14.0	win	042419	23:21:44	005	1	game	3	selection	277	1	70	70	0	slot2	296	296	2	1	2	48	34	48	14	36	4443	49	1	2	35	49	14	45	40.6207672243293913539	48.0896338639213851707	15.4721368111803663226	40.9115244215172779718
5.0.14.0	win	042419	23:21:44	005	1	game	3	iti	280	1	70	70	0	0	2000	296	2	1	2	49	34	49	14	36	4443	49	1	2	35	49	14	45	40.6207672243293913539	48.0896338639213851707	15.4721368111803663226	40.9115244215172779718
5.0.14.0	win	042419	23:21:44	005	1	game	3	selection	281	1	71	71	0	slot2	492	492	2	1	2	49	34	49	14	36	4503	60	1	2	49	60	16	31	42.9374234234104505958	49.2171582162866698695	15.367633101214430269	37.8683273035938512407
5.0.14.0	win	042419	23:21:44	005	1	game	3	iti	284	1	71	71	0	0	2000	492	2	1	2	60	34	60	14	36	4503	60	1	2	49	60	16	31	42.9374234234104505958	49.2171582162866698695	15.367633101214430269	37.8683273035938512407
5.0.14.0	win	042419	23:21:44	005	1	game	3	selection	285	1	72	72	0	slot2	273	273	2	1	2	60	34	60	14	36	4556	53	1	2	51	53	13	36	46.9059209717918292881	49.8132512803620102204	13.4433952659112971872	33.1175536426550110036
5.0.14.0	win	042419	23:21:44	005	1	game	3	iti	288	1	72	72	0	0	2000	273	2	1	2	53	34	53	14	36	4556	53	1	2	51	53	13	36	46.9059209717918292881	49.8132512803620102204	13.4433952659112971872	33.1175536426550110036
5.0.14.0	win	042419	23:21:44	005	1	game	3	selection	289	1	73	73	0	slot2	497	497	2	1	2	53	34	53	14	36	4599	43	2	1	55	43	8	35	50.2708557857572486682	47.1940641690330551228	10.2664907209076794459	31.8154317027510273874
5.0.14.0	win	042419	23:21:44	005	1	game	3	iti	292	1	73	73	0	0	2000	497	2	1	2	43	34	43	14	36	4599	43	2	1	55	43	8	35	50.2708557857572486682	47.1940641690330551228	10.2664907209076794459	31.8154317027510273874
5.0.14.0	win	042419	23:21:44	005	1	game	3	selection	293	1	74	74	0	slot2	332	332	2	1	2	43	34	43	14	36	4646	47	2	1	48	47	9	29	48.0923411069437136689	50.5034626253238769777	11.3036427132570160836	29.8029488158479551885
5.0.14.0	win	042419	23:21:44	005	1	game	3	iti	296	1	74	74	0	0	2000	332	2	1	2	47	34	47	14	36	4646	47	2	1	48	47	9	29	48.0923411069437136689	50.5034626253238769777	11.3036427132570160836	29.8029488158479551885
5.0.14.0	win	042419	23:21:44	005	1	game	3	selection	297	1	75	75	0	slot2	496	496	2	1	2	47	34	47	14	36	4684	38	2	1	43	38	15	22	46.0286488591936162607	49.5787123983536872629	10.7036971582247470991	27.0957930353037390603
5.0.14.0	win	042419	23:21:44	005	1	game	3	iti	300	1	75	75	0	0	2000	496	2	1	2	38	34	38	14	36	4684	38	2	1	43	38	15	22	46.0286488591936162607	49.5787123983536872629	10.7036971582247470991	27.0957930353037390603
5.0.14.0	win	042419	23:21:44	005	1	game	3	selection	301	1	76	76	0	slot4	265	265	4	2	2	38	34	38	14	36	4714	30	2	2	47	49	17	30	44.8831417986226455241	50.3162986830257779047	14.860793433574182032	26.0930597868604010614
5.0.14.0	win	042419	23:21:44	005	1	game	3	iti	304	1	76	76	0	0	2000	265	4	2	2	38	34	38	14	30	4714	30	2	2	47	49	17	30	44.8831417986226455241	50.3162986830257779047	14.860793433574182032	26.0930597868604010614
5.0.14.0	win	042419	23:21:44	005	1	game	3	selection	305	1	77	77	0	slot2	293	293	2	1	2	38	34	38	14	30	4764	50	1	2	47	50	10	25	43.9040163354533703455	50.4645334498541799917	14.1914014530801697589	25.5768962857088411056
5.0.14.0	win	042419	23:21:44	005	1	game	3	iti	308	1	77	77	0	0	2000	293	2	1	2	50	34	50	14	30	4764	50	1	2	47	50	10	25	43.9040163354533703455	50.4645334498541799917	14.1914014530801697589	25.5768962857088411056
5.0.14.0	win	042419	23:21:44	005	1	game	3	selection	309	1	78	78	0	slot2	362	362	2	1	2	50	34	50	14	30	4808	44	2	1	49	44	13	27	51.0504827186283165474	49.314808311030411403	11.490842980152034869	26.6560315326273062908
5.0.14.0	win	042419	23:21:44	005	1	game	3	iti	312	1	78	78	0	0	2000	362	2	1	2	44	34	44	14	30	4808	44	2	1	49	44	13	27	51.0504827186283165474	49.314808311030411403	11.490842980152034869	26.6560315326273062908
5.0.14.0	win	042419	23:21:44	005	1	game	3	selection	313	1	79	79	0	slot2	363	363	2	1	2	44	34	44	14	30	4860	52	1	2	49	52	13	30	51.0027503161129658338	50.7931468311442770869	9.6056651925445102336	29.5672794002227661281
5.0.14.0	win	042419	23:21:44	005	1	game	3	iti	316	1	79	79	0	0	2000	363	2	1	2	52	34	52	14	30	4860	52	1	2	49	52	13	30	51.0027503161129658338	50.7931468311442770869	9.6056651925445102336	29.5672794002227661281
5.0.14.0	win	042419	23:21:44	005	1	game	3	selection	317	1	80	80	0	slot2	508	508	2	1	2	52	34	52	14	30	4910	50	2	1	54	50	8	26	54.0820589534649798225	49.0082444115022681785	9.6751191645479774905	29.1543174259409738625
5.0.14.0	win	042419	23:21:44	005	1	game	3	iti	320	1	80	80	0	0	2000	508	2	1	2	50	34	50	14	30	4910	50	2	1	54	50	8	26	54.0820589534649798225	49.0082444115022681785	9.6751191645479774905	29.1543174259409738625
5.0.14.0	win	042419	23:21:44	005	1	game	3	selection	321	1	81	81	0	slot2	963	963	2	1	2	50	34	50	14	30	4958	48	2	1	54	48	15	30	56.2064183857302452907	50.6119317288938788124	9.129496341939427495	30.2637260081923997745
5.0.14.0	win	042419	23:21:44	005	1	game	3	iti	324	1	81	81	0	0	2000	963	2	1	2	48	34	48	14	30	4958	48	2	1	54	48	15	30	56.2064183857302452907	50.6119317288938788124	9.129496341939427495	30.2637260081923997745
5.0.14.0	win	042419	23:21:44	005	1	game	3	selection	325	1	82	82	0	slot2	364	364	2	1	2	48	34	48	14	30	5004	46	2	1	55	46	1	35	49.1039956219181945585	49.5966292101105210577	6.8682923839140546107	30.3455233541624380678
5.0.14.0	win	042419	23:21:44	005	1	game	3	iti	328	1	82	82	0	0	2000	364	2	1	2	46	34	46	14	30	5004	46	2	1	55	46	1	35	49.1039956219181945585	49.5966292101105210577	6.8682923839140546107	30.3455233541624380678
5.0.14.0	win	042419	23:21:44	005	1	game	3	selection	329	1	83	83	0	slot2	276	276	2	1	2	46	34	46	14	30	5058	54	1	2	48	54	1	32	52.2887198448292025432	46.4940538324767871359	1.7671367203608605578	37.9343427345036658949
5.0.14.0	win	042419	23:21:44	005	1	game	3	iti	332	1	83	83	0	0	2000	276	2	1	2	54	34	54	14	30	5058	54	1	2	48	54	1	32	52.2887198448292025432	46.4940538324767871359	1.7671367203608605578	37.9343427345036658949
5.0.14.0	win	042419	23:21:44	005	1	game	3	selection	333	1	84	84	0	slot2	344	344	2	1	2	54	34	54	14	30	5111	53	2	1	54	53	1	34	50.0220682845830779684	46.2690605129545602381	7.611444430358917046	38.8679000016621571945
5.0.14.0	win	042419	23:21:44	005	1	game	3	iti	336	1	84	84	0	0	2000	344	2	1	2	53	34	53	14	30	5111	53	2	1	54	53	1	34	50.0220682845830779684	46.2690605129545602381	7.611444430358917046	38.8679000016621571945
5.0.14.0	win	042419	23:21:44	005	1	game	3	selection	337	1	85	85	0	slot2	571	571	2	1	2	53	34	53	14	30	5158	47	2	1	56	47	11	39	53.7520290997983991588	45.7065166934897106898	7.8131562324306607081	40.9096911400275757842
5.0.14.0	win	042419	23:21:44	005	1	game	3	iti	340	1	85	85	0	0	2000	571	2	1	2	47	34	47	14	30	5158	47	2	1	56	47	11	39	53.7520290997983991588	45.7065166934897106898	7.8131562324306607081	40.9096911400275757842
5.0.14.0	win	042419	23:21:44	005	1	game	3	selection	341	1	86	86	0	slot2	527	527	2	1	2	47	34	47	14	30	5210	52	2	1	62	52	11	47	60.3593034733707440864	47.6878218232440076463	6.1526592183593979968	40.3574154578336177224
5.0.14.0	win	042419	23:21:44	005	1	game	3	iti	344	1	86	86	0	0	2000	527	2	1	2	52	34	52	14	30	5210	52	2	1	62	52	11	47	60.3593034733707440864	47.6878218232440076463	6.1526592183593979968	40.3574154578336177224
5.0.14.0	win	042419	23:21:44	005	1	game	3	selection	345	1	87	87	0	slot2	274	274	2	1	2	52	34	52	14	30	5258	48	2	1	62	48	1	40	61.8024356356070754259	42.0659696443441646352	7.4055980176248290547	38.9831546800144153053
5.0.14.0	win	042419	23:21:44	005	1	game	3	iti	348	1	87	87	0	0	2000	274	2	1	2	48	34	48	14	30	5258	48	2	1	62	48	1	40	61.8024356356070754259	42.0659696443441646352	7.4055980176248290547	38.9831546800144153053
5.0.14.0	win	042419	23:21:44	005	1	game	3	selection	349	1	88	88	0	slot2	292	292	2	1	2	48	34	48	14	30	5304	46	2	1	62	46	5	31	61.8105429615941588395	46.7786460811256645798	4.7564627606105638336	31.5135454593752299957
5.0.14.0	win	042419	23:21:44	005	1	game	3	iti	352	1	88	88	0	0	2000	292	2	1	2	46	34	46	14	30	5304	46	2	1	62	46	5	31	61.8105429615941588395	46.7786460811256645798	4.7564627606105638336	31.5135454593752299957
5.0.14.0	win	042419	23:21:44	005	1	game	3	selection	353	1	89	89	0	slot2	291	291	2	1	2	46	34	46	14	30	5352	48	2	1	68	48	1	35	63.2591660805968274417	49.372281071892956561	2.9799098478823662361	34.2723794456990020763
5.0.14.0	win	042419	23:21:44	005	1	game	3	iti	356	1	89	89	0	0	2000	291	2	1	2	48	34	48	14	30	5352	48	2	1	68	48	1	35	63.2591660805968274417	49.372281071892956561	2.9799098478823662361	34.2723794456990020763
5.0.14.0	win	042419	23:21:44	005	1	game	3	selection	357	1	90	90	0	slot2	412	412	2	1	2	48	34	48	14	30	5396	44	2	1	64	44	1	30	63.7879193765408700756	47.3730925026067737349	1.1709787899968313596	31.9171784758138592508
5.0.14.0	win	042419	23:21:44	005	1	game	3	iti	360	1	90	90	0	0	2000	412	2	1	2	44	34	44	14	30	5396	44	2	1	64	44	1	30	63.7879193765408700756	47.3730925026067737349	1.1709787899968313596	31.9171784758138592508
5.0.14.0	win	042419	23:21:44	005	1	game	3	selection	361	1	91	91	0	slot2	313	313	2	1	2	44	34	44	14	30	5448	52	2	1	57	52	2	38	61.6125072924436878452	49.4257986808377083321	3.8702565971589488747	29.6166897357764717924
5.0.14.0	win	042419	23:21:44	005	1	game	3	iti	364	1	91	91	0	0	2000	313	2	1	2	52	34	52	14	30	5448	52	2	1	57	52	2	38	61.6125072924436878452	49.4257986808377083321	3.8702565971589488747	29.6166897357764717924
5.0.14.0	win	042419	23:21:44	005	1	game	3	selection	365	1	92	92	0	slot2	345	345	2	1	2	52	34	52	14	30	5500	52	2	1	61	52	12	36	61.4305301374045242824	47.3069058287851547107	8.1903609744656051816	30.0717165819733658338
5.0.14.0	win	042419	23:21:44	005	1	game	3	iti	368	1	92	92	0	0	2000	345	2	1	2	52	34	52	14	30	5500	52	2	1	61	52	12	36	61.4305301374045242824	47.3069058287851547107	8.1903609744656051816	30.0717165819733658338
5.0.14.0	win	042419	23:21:44	005	1	game	3	selection	369	1	93	93	0	slot2	357	357	2	1	2	52	34	52	14	30	5549	49	2	1	63	49	11	36	62.0976445687749318836	49.6370990617538438983	7.8105503871267494276	30.5194131859037263155
5.0.14.0	win	042419	23:21:44	005	1	game	3	iti	372	1	93	93	0	0	2000	357	2	1	2	49	34	49	14	30	5549	49	2	1	63	49	11	36	62.0976445687749318836	49.6370990617538438983	7.8105503871267494276	30.5194131859037263155
5.0.14.0	win	042419	23:21:44	005	1	game	3	selection	373	1	94	94	0	slot2	647	647	2	1	2	49	34	49	14	30	5600	51	2	1	61	51	11	29	60.9370449621878975677	52.2178986219427656579	9.4716659524150568217	28.1807407462445915769
5.0.14.0	win	042419	23:21:44	005	1	game	3	iti	376	1	94	94	0	0	2000	647	2	1	2	51	34	51	14	30	5600	51	2	1	61	51	11	29	60.9370449621878975677	52.2178986219427656579	9.4716659524150568217	28.1807407462445915769
5.0.14.0	win	042419	23:21:44	005	1	game	3	selection	377	1	95	95	0	slot2	394	394	2	1	2	51	34	51	14	30	5656	56	2	1	57	56	5	33	55.6445777756386377177	52.1891185640034933613	6.160897279219224032	27.2233434803329679141
5.0.14.0	win	042419	23:21:44	005	1	game	3	iti	380	1	95	95	0	0	2000	394	2	1	2	56	34	56	14	30	5656	56	2	1	57	56	5	33	55.6445777756386377177	52.1891185640034933613	6.160897279219224032	27.2233434803329679141
5.0.14.0	win	042419	23:21:44	005	1	game	3	selection	381	1	96	96	0	slot2	330	330	2	1	2	56	34	56	14	30	5701	45	2	1	62	45	4	27	57.1923409284090169535	51.078980931037150981	8.0038238939135109007	30.5909670321869633369
5.0.14.0	win	042419	23:21:44	005	1	game	3	iti	384	1	96	96	0	0	2000	330	2	1	2	45	34	45	14	30	5701	45	2	1	62	45	4	27	57.1923409284090169535	51.078980931037150981	8.0038238939135109007	30.5909670321869633369
5.0.14.0	win	042419	23:21:44	005	1	game	3	selection	385	1	97	97	0	slot2	362	362	2	1	2	45	34	45	14	30	5753	52	2	1	62	52	13	25	59.9072993312588337744	49.9294748216078616565	8.6668009640690222284	31.7022348807207094978
5.0.14.0	win	042419	23:21:44	005	1	game	3	iti	388	1	97	97	0	0	2000	362	2	1	2	52	34	52	14	30	5753	52	2	1	62	52	13	25	59.9072993312588337744	49.9294748216078616565	8.6668009640690222284	31.7022348807207094978
5.0.14.0	win	042419	23:21:44	005	1	game	3	selection	389	1	98	98	0	slot2	438	438	2	1	2	52	34	52	14	30	5810	57	2	1	73	57	16	30	64.3376496461757625411	53.3324933496254942611	10.8156033654600864935	30.1691190453209401312
5.0.14.0	win	042419	23:21:44	005	1	game	3	iti	392	1	98	98	0	0	2000	438	2	1	2	57	34	57	14	30	5810	57	2	1	73	57	16	30	64.3376496461757625411	53.3324933496254942611	10.8156033654600864935	30.1691190453209401312
5.0.14.0	win	042419	23:21:44	005	1	game	3	selection	393	1	99	99	0	slot2	307	307	2	1	2	57	34	57	14	30	5867	57	2	1	64	57	1	33	65.1376358907767638584	52.8425134773266691468	11.5773448694328866537	34.7458796155385414295
5.0.14.0	win	042419	23:21:44	005	1	game	3	iti	396	1	99	99	0	0	2000	307	2	1	2	57	34	57	14	30	5867	57	2	1	64	57	1	33	65.1376358907767638584	52.8425134773266691468	11.5773448694328866537	34.7458796155385414295
5.0.14.0	win	042419	23:21:44	005	1	game	3	selection	397	1	100	100	0	slot2	554	554	2	1	2	57	34	57	14	30	5924	57	2	1	65	57	16	31	65.5047847730320995652	52.360730660473670639	11.4871078041035055151	29.5374714704469170101
5.0.14.0	win	042419	23:21:44	005	1	game	3	iti	400	1	100	100	0	0	2000	554	2	1	2	57	34	57	14	30	5924	57	2	1	65	57	16	31	65.5047847730320995652	52.360730660473670639	11.4871078041035055151	29.5374714704469170101
5.0.14.0	win	042419	23:21:44	005	1	game	3	selection	401	1	101	101	0	slot2	475	475	2	1	2	57	34	57	14	30	5984	60	2	1	72	60	12	30	71.245291049624213997	52.0914268771687218873	12.2210347547714270888	31.1295817076771683674
5.0.14.0	win	042419	23:21:44	005	1	game	3	iti	404	1	101	101	0	0	2000	475	2	1	2	60	34	60	14	30	5984	60	2	1	72	60	12	30	71.245291049624213997	52.0914268771687218873	12.2210347547714270888	31.1295817076771683674
5.0.14.0	win	042419	23:21:44	005	1	game	3	selection	405	1	102	102	0	slot2	585	585	2	1	2	60	34	60	14	30	6030	46	2	1	69	46	16	35	72.4878607271058683637	54.1942925404820741164	15.8489224333289548952	29.2356370131862597361
5.0.14.0	win	042419	23:21:44	005	1	game	3	iti	408	1	102	102	0	0	2000	585	2	1	2	46	34	46	14	30	6030	46	2	1	69	46	16	35	72.4878607271058683637	54.1942925404820741164	15.8489224333289548952	29.2356370131862597361
5.0.14.0	win	042419	23:21:44	005	1	game	3	selection	409	1	103	103	0	slot2	424	424	2	1	2	46	34	46	14	30	6089	59	2	1	72	59	25	36	71.6623172405462440793	55.058438560914268578	19.4086234625647726659	30.9917052077277297428
5.0.14.0	win	042419	23:21:44	005	1	game	3	iti	412	1	103	103	0	0	2000	424	2	1	2	59	34	59	14	30	6089	59	2	1	72	59	25	36	71.6623172405462440793	55.058438560914268578	19.4086234625647726659	30.9917052077277297428
5.0.14.0	win	042419	23:21:44	005	1	game	3	selection	413	1	104	104	0	slot2	432	432	2	1	2	59	34	59	14	30	6143	54	2	1	78	54	17	19	73.153679656414297483	54.2836138136002119836	15.6571200442675078079	28.4873197959152690828
5.0.14.0	win	042419	23:21:44	005	1	game	3	iti	416	1	104	104	0	0	2000	432	2	1	2	54	34	54	14	30	6143	54	2	1	78	54	17	19	73.153679656414297483	54.2836138136002119836	15.6571200442675078079	28.4873197959152690828
5.0.14.0	win	042419	23:21:44	005	1	game	3	selection	417	1	105	105	0	slot2	262	262	2	1	2	54	34	54	14	30	6202	59	2	1	78	59	13	29	75.1023165806409735978	57.4371592103702752752	16.9964100373488911089	33.7091225029109651246
5.0.14.0	win	042419	23:21:44	005	1	game	3	iti	420	1	105	105	0	0	2000	262	2	1	2	59	34	59	14	30	6202	59	2	1	78	59	13	29	75.1023165806409735978	57.4371592103702752752	16.9964100373488911089	33.7091225029109651246
5.0.14.0	win	042419	23:21:44	005	1	game	3	selection	421	1	106	106	0	slot2	694	694	2	1	2	59	34	59	14	30	6264	62	2	1	77	62	20	41	77.0272073384753497294	58.9844202999051674396	19.4162512930446240489	35.2873299282312302694
5.0.14.0	win	042419	23:21:44	005	1	game	3	iti	424	1	106	106	0	0	2000	694	2	1	2	62	34	62	14	30	6264	62	2	1	77	62	20	41	77.0272073384753497294	58.9844202999051674396	19.4162512930446240489	35.2873299282312302694
5.0.14.0	win	042419	23:21:44	005	1	game	3	selection	425	1	107	107	0	slot2	290	290	2	1	2	62	34	62	14	30	6328	64	2	1	76	64	18	39	76.5708612696717381141	61.8785311242472246818	18.3452350700770132619	37.7583641461441388287
5.0.14.0	win	042419	23:21:44	005	1	game	3	iti	428	1	107	107	0	0	2000	290	2	1	2	64	34	64	14	30	6328	64	2	1	76	64	18	39	76.5708612696717381141	61.8785311242472246818	18.3452350700770132619	37.7583641461441388287
5.0.14.0	win	042419	23:21:44	005	1	game	3	selection	429	1	108	108	0	slot2	317	317	2	1	2	64	34	64	14	30	6389	61	2	1	69	61	26	37	75.4102045210472624603	65.0352383312056900877	19.2731495831066794722	37.9499786755026491392
5.0.14.0	win	042419	23:21:44	005	1	game	3	iti	432	1	108	108	0	0	2000	317	2	1	2	61	34	61	14	30	6389	61	2	1	69	61	26	37	75.4102045210472624603	65.0352383312056900877	19.2731495831066794722	37.9499786755026491392
5.0.14.0	win	042419	23:21:44	005	1	game	3	selection	433	1	109	109	0	slot2	419	419	2	1	2	61	34	61	14	30	6459	70	2	1	74	70	21	34	75.3435086017138502257	62.9174732719369842471	21.3165756399063894833	36.0665179146677061794
5.0.14.0	win	042419	23:21:44	005	1	game	3	iti	436	1	109	109	0	0	2000	419	2	1	2	70	34	70	14	30	6459	70	2	1	74	70	21	34	75.3435086017138502257	62.9174732719369842471	21.3165756399063894833	36.0665179146677061794
5.0.14.0	win	042419	23:21:44	005	1	game	3	selection	437	1	110	110	0	slot2	317	317	2	1	2	70	34	70	14	30	6519	60	2	1	79	60	20	35	77.1575235623465545132	63.5271751733675031915	18.1998160756192888243	34.1187824386558062884
5.0.14.0	win	042419	23:21:44	005	1	game	3	iti	440	1	110	110	0	0	2000	317	2	1	2	60	34	60	14	30	6519	60	2	1	79	60	20	35	77.1575235623465545132	63.5271751733675031915	18.1998160756192888243	34.1187824386558062884
5.0.14.0	win	042419	23:21:44	005	1	game	3	selection	441	1	111	111	0	slot2	703	703	2	1	2	60	34	60	14	30	6591	72	2	1	81	72	26	30	79.7126429339817832442	65.0170737797467097607	20.6922217331082265446	31.3183945394613765245
5.0.14.0	win	042419	23:21:44	005	1	game	3	iti	444	1	111	111	0	0	2000	703	2	1	2	72	34	72	14	30	6591	72	2	1	81	72	26	30	79.7126429339817832442	65.0170737797467097607	20.6922217331082265446	31.3183945394613765245
5.0.14.0	win	042419	23:21:44	005	1	game	3	selection	445	1	112	112	0	slot2	326	326	2	1	2	72	34	72	14	30	6646	55	2	1	73	55	16	38	78.7035112428693679476	60.3308227573634283658	21.1267726210409172438	32.7192720877979681404
5.0.14.0	win	042419	23:21:44	005	1	game	3	iti	448	1	112	112	0	0	2000	326	2	1	2	55	34	55	14	30	6646	55	2	1	73	55	16	38	78.7035112428693679476	60.3308227573634283658	21.1267726210409172438	32.7192720877979681404
5.0.14.0	win	042419	23:21:44	005	1	game	3	selection	449	1	113	113	0	slot2	414	414	2	1	2	55	34	55	14	30	6699	53	2	1	89	53	27	33	78.5291084926254114862	58.0117137730106762206	24.288633594871701149	31.4045986870199236307
5.0.14.0	win	042419	23:21:44	005	1	game	3	iti	452	1	113	113	0	0	2000	414	2	1	2	53	34	53	14	30	6699	53	2	1	89	53	27	33	78.5291084926254114862	58.0117137730106762206	24.288633594871701149	31.4045986870199236307
5.0.14.0	win	042419	23:21:44	005	1	game	3	selection	453	1	114	114	0	slot2	439	439	2	1	2	53	34	53	14	30	6751	52	2	1	85	52	32	24	78.6786204565055840021	53.4333182940596671529	26.9982666918760756403	29.6325138552834523864
5.0.14.0	win	042419	23:21:44	005	1	game	3	iti	456	1	114	114	0	0	2000	439	2	1	2	52	34	52	14	30	6751	52	2	1	85	52	32	24	78.6786204565055840021	53.4333182940596671529	26.9982666918760756403	29.6325138552834523864
5.0.14.0	win	042419	23:21:44	005	1	game	3	selection	457	1	115	115	0	slot2	332	332	2	1	2	52	34	52	14	30	6801	50	2	1	84	50	31	32	78.3760402144973369332	55.8780879144951541093	31.4034961436570867477	29.1707118617296110585
5.0.14.0	win	042419	23:21:44	005	1	game	3	iti	460	1	115	115	0	0	2000	332	2	1	2	50	34	50	14	30	6801	50	2	1	84	50	31	32	78.3760402144973369332	55.8780879144951541093	31.4034961436570867477	29.1707118617296110585
5.0.14.0	win	042419	23:21:44	005	1	game	3	selection	461	1	116	116	0	slot2	583	583	2	1	2	50	34	50	14	30	6855	54	2	1	73	54	18	28	75.9383683114074301557	55.0466223968844872161	24.7910754942530289213	33.9808816771330697293
5.0.14.0	win	042419	23:21:44	005	1	game	3	iti	464	1	116	116	0	0	2000	583	2	1	2	54	34	54	14	30	6855	54	2	1	73	54	18	28	75.9383683114074301557	55.0466223968844872161	24.7910754942530289213	33.9808816771330697293
5.0.14.0	win	042419	23:21:44	005	1	game	3	selection	465	1	117	117	0	slot2	447	447	2	1	2	54	34	54	14	30	6910	55	2	1	81	55	21	28	75.73083283459433801	52.1121504732061708864	24.9974188524693481384	33.8776191032683868798
5.0.14.0	win	042419	23:21:44	005	1	game	3	iti	468	1	117	117	0	0	2000	447	2	1	2	55	34	55	14	30	6910	55	2	1	81	55	21	28	75.73083283459433801	52.1121504732061708864	24.9974188524693481384	33.8776191032683868798
5.0.14.0	win	042419	23:21:44	005	1	game	3	selection	469	1	118	118	0	slot2	464	464	2	1	2	55	34	55	14	30	6958	48	2	1	70	48	31	40	74.6319847696677953763	48.2992396226302957984	28.0833275809530071854	35.5008892992822282508
5.0.14.0	win	042419	23:21:44	005	1	game	3	iti	472	1	118	118	0	0	2000	464	2	1	2	48	34	48	14	30	6958	48	2	1	70	48	31	40	74.6319847696677953763	48.2992396226302957984	28.0833275809530071854	35.5008892992822282508
5.0.14.0	win	042419	23:21:44	005	1	game	3	selection	473	1	119	119	0	slot2	379	379	2	1	2	48	34	48	14	30	7008	50	2	1	69	50	34	38	73.9831462658467984284	52.4346783221838776967	32.8332675838370136034	32.1544511210566099635
5.0.14.0	win	042419	23:21:44	005	1	game	3	iti	476	1	119	119	0	0	2000	379	2	1	2	50	34	50	14	30	7008	50	2	1	69	50	34	38	73.9831462658467984284	52.4346783221838776967	32.8332675838370136034	32.1544511210566099635
5.0.14.0	win	042419	23:21:44	005	1	game	3	selection	477	1	120	120	0	slot2	527	527	2	1	2	50	34	50	14	30	7056	48	2	1	69	48	35	23	73.3919693986323835588	50.089221822962876729	36.6272653084808013091	28.8312959406253384032
5.0.14.0	win	042419	23:21:44	005	1	game	3	iti	480	1	120	120	0	0	2000	527	2	1	2	48	34	48	14	30	7056	48	2	1	69	48	35	23	73.3919693986323835588	50.089221822962876729	36.6272653084808013091	28.8312959406253384032
5.0.14.0	win	042419	23:21:44	005	1	game	3	selection	481	1	121	121	0	slot2	553	553	2	1	2	48	34	48	14	30	7099	43	2	1	68	43	32	28	69.0905122898366812478	48.425214832409388066	34.0667593571585030077	33.0099007724065600655
5.0.14.0	win	042419	23:21:44	005	1	game	3	iti	484	1	121	121	0	0	2000	553	2	1	2	43	34	43	14	30	7099	43	2	1	68	43	32	28	69.0905122898366812478	48.425214832409388066	34.0667593571585030077	33.0099007724065600655
5.0.14.0	win	042419	23:21:44	005	1	game	3	selection	485	1	122	122	0	slot2	332	332	2	1	2	43	34	43	14	30	7146	47	2	1	75	47	31	29	68.7806656913093519279	49.2593834618240080658	30.0971457176187655591	33.4965934455673703951
5.0.14.0	win	042419	23:21:44	005	1	game	3	iti	488	1	122	122	0	0	2000	332	2	1	2	47	34	47	14	30	7146	47	2	1	75	47	31	29	68.7806656913093519279	49.2593834618240080658	30.0971457176187655591	33.4965934455673703951
5.0.14.0	win	042419	23:21:44	005	1	game	3	selection	489	1	123	123	0	slot2	449	449	2	1	2	47	34	47	14	30	7194	48	2	1	65	48	33	35	62.6765110525948543341	50.0979167276568730927	30.5150608879924902794	36.1993296564142781335
5.0.14.0	win	042419	23:21:44	005	1	game	3	iti	492	1	123	123	0	0	2000	449	2	1	2	48	34	48	14	30	7194	48	2	1	65	48	33	35	62.6765110525948543341	50.0979167276568730927	30.5150608879924902794	36.1993296564142781335
5.0.14.0	win	042419	23:21:44	005	1	game	3	selection	493	1	124	124	0	slot2	328	328	2	1	2	48	34	48	14	30	7253	59	2	1	62	59	29	30	63.0533692280384698847	55.8096745334390078597	36.0612372449217630788	33.8378553693692083471
5.0.14.0	win	042419	23:21:44	005	1	game	3	iti	496	1	124	124	0	0	2000	328	2	1	2	59	34	59	14	30	7253	59	2	1	62	59	29	30	63.0533692280384698847	55.8096745334390078597	36.0612372449217630788	33.8378553693692083471
5.0.14.0	win	042419	23:21:44	005	1	game	3	selection	497	1	125	125	0	slot2	555	555	2	1	2	59	34	59	14	30	7297	44	2	1	63	44	39	30	62.3129609365776531149	47.8454476455169057658	33.8097308834412544343	33.7708483099380103454
5.0.14.0	win	042419	23:21:44	005	1	game	3	iti	500	1	125	125	0	0	2000	555	2	1	2	44	34	44	14	30	7297	44	2	1	63	44	39	30	62.3129609365776531149	47.8454476455169057658	33.8097308834412544343	33.7708483099380103454
5.0.14.0	win	042419	23:21:44	005	1	game	3	selection	501	1	126	126	1	0	1500	1500	0	0	2	44	34	44	14	30	7297	0	0	1	59	47	36	33	54.6294052099036804293	48.5411682728099336259	32.857736893881906326	33.1217084418361835674
5.0.14.0	win	042419	23:21:44	005	1	game	3	iti	503	1	126	126	1	0	2000	1500	0	0	2	44	34	44	14	30	7297	0	0	1	59	47	36	33	54.6294052099036804293	48.5411682728099336259	32.857736893881906326	33.1217084418361835674
5.0.14.0	win	042419	23:21:44	005	1	game	3	selection	504	1	127	127	1	slot2	445	445	2	1	2	44	34	44	14	30	7335	38	2	1	51	38	26	29	52.6904375796811237365	47.8970810284496408826	30.6400307675030454391	35.1957128217615391463
5.0.14.0	win	042419	23:21:44	005	1	game	3	iti	507	1	127	127	1	0	2000	445	2	1	2	38	34	38	14	30	7335	38	2	1	51	38	26	29	52.6904375796811237365	47.8970810284496408826	30.6400307675030454391	35.1957128217615391463
5.0.14.0	win	042419	23:21:44	005	1	game	3	selection	508	1	128	128	1	slot2	648	648	2	1	2	38	34	38	14	30	7374	39	2	1	53	39	24	34	51.2417645866554565259	45.7313037237401260882	24.8984909695147464959	37.1564953894502281173
5.0.14.0	win	042419	23:21:44	005	1	game	3	iti	511	1	128	128	1	0	2000	648	2	1	2	39	34	39	14	30	7374	39	2	1	53	39	24	34	51.2417645866554565259	45.7313037237401260882	24.8984909695147464959	37.1564953894502281173
5.0.14.0	win	042419	23:21:44	005	1	game	3	selection	512	1	129	129	1	slot4	595	595	4	2	2	39	34	39	14	30	7402	28	2	2	50	51	42	28	52.7858063163284185748	50.998622366457901478	30.6980047299829230667	36.489310359337189027
5.0.14.0	win	042419	23:21:44	005	1	game	3	iti	515	1	129	129	1	0	2000	595	4	2	2	39	34	39	14	28	7402	28	2	2	50	51	42	28	52.7858063163284185748	50.998622366457901478	30.6980047299829230667	36.489310359337189027
5.0.14.0	win	042419	23:21:44	005	1	game	3	selection	516	1	130	130	1	slot3	288	288	3	2	2	39	34	39	14	28	7433	31	2	1	53	48	31	41	55.7337650402477748912	48.2724935961336143464	33.0470396213281034647	36.5447899633211008563
5.0.14.0	win	042419	23:21:44	005	1	game	3	iti	519	1	130	130	1	0	2000	288	3	2	2	39	34	39	31	28	7433	31	2	1	53	48	31	41	55.7337650402477748912	48.2724935961336143464	33.0470396213281034647	36.5447899633211008563
5.0.14.0	win	042419	23:21:44	005	1	game	3	selection	520	1	131	131	1	slot2	266	266	2	1	2	39	34	39	31	28	7484	51	1	2	48	51	30	34	53.7614373707153561099	46.0424360650396664596	36.5261334092991489797	33.4557114188176001335
5.0.14.0	win	042419	23:21:44	005	1	game	3	iti	523	1	131	131	1	0	2000	266	2	1	2	51	34	51	31	28	7484	51	1	2	48	51	30	34	53.7614373707153561099	46.0424360650396664596	36.5261334092991489797	33.4557114188176001335
5.0.14.0	win	042419	23:21:44	005	1	game	3	selection	524	1	132	132	1	slot2	540	540	2	1	2	51	34	51	31	28	7528	44	2	1	58	44	35	36	54.5232399999317820516	46.9123817364607234026	34.497616961432527205	33.6483421052161801867
5.0.14.0	win	042419	23:21:44	005	1	game	3	iti	527	1	132	132	1	0	2000	540	2	1	2	44	34	44	31	28	7528	44	2	1	58	44	35	36	54.5232399999317820516	46.9123817364607234026	34.497616961432527205	33.6483421052161801867
5.0.14.0	win	042419	23:21:44	005	1	game	3	selection	528	1	133	133	1	slot2	279	279	2	1	2	44	34	44	31	28	7567	39	2	1	51	39	34	33	55.1609042205230437617	40.8760485914780602457	34.5930868762817880224	34.0966578014319381396
5.0.14.0	win	042419	23:21:44	005	1	game	3	iti	531	1	133	133	1	0	2000	279	2	1	2	39	34	39	31	28	7567	39	2	1	51	39	34	33	55.1609042205230437617	40.8760485914780602457	34.5930868762817880224	34.0966578014319381396
5.0.14.0	win	042419	23:21:44	005	1	game	3	selection	532	1	134	134	1	slot2	307	307	2	1	2	39	34	39	31	28	7608	41	2	1	52	41	24	36	53.7822418497147864969	40.6156949968326799194	32.0175478079155766409	37.4300159669790417638
5.0.14.0	win	042419	23:21:44	005	1	game	3	iti	535	1	134	134	1	0	2000	307	2	1	2	41	34	41	31	28	7608	41	2	1	52	41	24	36	53.7822418497147864969	40.6156949968326799194	32.0175478079155766409	37.4300159669790417638
5.0.14.0	win	042419	23:21:44	005	1	game	3	selection	536	1	135	135	1	slot2	428	428	2	1	2	41	34	41	31	28	7647	39	2	1	58	39	40	51	56.7188188310081287113	39.0272159943239742574	34.741222328716652612	42.7744259366023911184
5.0.14.0	win	042419	23:21:44	005	1	game	3	iti	539	1	135	135	1	0	2000	428	2	1	2	39	34	39	31	28	7647	39	2	1	58	39	40	51	56.7188188310081287113	39.0272159943239742574	34.741222328716652612	42.7744259366023911184
5.0.14.0	win	042419	23:21:44	005	1	game	3	selection	540	1	136	136	1	slot2	324	324	2	1	2	39	34	39	31	28	7693	46	2	1	51	46	26	40	53.5457175240530673932	41.0976912334900248425	33.349816177425800845	41.1249648859770360332
5.0.14.0	win	042419	23:21:44	005	1	game	3	iti	543	1	136	136	1	0	2000	324	2	1	2	46	34	46	31	28	7693	46	2	1	51	46	26	40	53.5457175240530673932	41.0976912334900248425	33.349816177425800845	41.1249648859770360332
5.0.14.0	win	042419	23:21:44	005	1	game	3	selection	544	1	137	137	1	slot2	252	252	2	1	2	46	34	46	31	28	7734	41	2	1	49	41	25	40	54.3842322595946825459	40.3120485561358563587	32.4717553381015235914	40.6463788286611418243
5.0.14.0	win	042419	23:21:44	005	1	game	3	iti	547	1	137	137	1	0	2000	252	2	1	2	41	34	41	31	28	7734	41	2	1	49	41	25	40	54.3842322595946825459	40.3120485561358563587	32.4717553381015235914	40.6463788286611418243
5.0.14.0	win	042419	23:21:44	005	1	game	3	selection	548	1	138	138	1	slot2	406	406	2	1	2	41	34	41	31	28	7775	41	2	1	52	41	32	40	56.4021881022149642604	39.8909152602942782551	36.4984213346375838682	41.3084552441820562763
5.0.14.0	win	042419	23:21:44	005	1	game	3	iti	551	1	138	138	1	0	2000	406	2	1	2	41	34	41	31	28	7775	41	2	1	52	41	32	40	56.4021881022149642604	39.8909152602942782551	36.4984213346375838682	41.3084552441820562763
5.0.14.0	win	042419	23:21:44	005	1	game	3	selection	552	1	139	139	1	slot2	455	455	2	1	2	41	34	41	31	28	7816	41	2	1	59	41	34	39	61.1091827472865887216	39.4041844984598270685	38.4629310431759847688	43.3878542737137351537
5.0.14.0	win	042419	23:21:44	005	1	game	3	iti	555	1	139	139	1	0	2000	455	2	1	2	41	34	41	31	28	7816	41	2	1	59	41	34	39	61.1091827472865887216	39.4041844984598270685	38.4629310431759847688	43.3878542737137351537
5.0.14.0	win	042419	23:21:44	005	1	game	3	selection	556	1	140	140	1	slot2	869	869	2	1	2	41	34	41	31	28	7859	43	2	1	61	43	41	51	61.9920703528967891316	42.6629136955169911971	40.3034769842241473725	48.6575334996705848312
5.0.14.0	win	042419	23:21:44	005	1	game	3	iti	559	1	140	140	1	0	2000	869	2	1	2	43	34	43	31	28	7859	43	2	1	61	43	41	51	61.9920703528967891316	42.6629136955169911971	40.3034769842241473725	48.6575334996705848312
5.0.14.0	win	042419	23:21:44	005	1	game	3	selection	560	1	141	141	1	slot2	443	443	2	1	2	43	34	43	31	28	7906	47	2	1	58	47	40	52	63.149551117587073179	42.6027351002198955143	43.4085899156496779483	54.5567405728617202954
5.0.14.0	win	042419	23:21:44	005	1	game	3	iti	563	1	141	141	1	0	2000	443	2	1	2	47	34	47	31	28	7906	47	2	1	58	47	40	52	63.149551117587073179	42.6027351002198955143	43.4085899156496779483	54.5567405728617202954
5.0.14.0	win	042419	23:21:44	005	1	game	3	selection	564	1	142	142	1	slot2	307	307	2	1	2	47	34	47	31	28	7934	28	2	1	62	28	38	53	64.0901210570293642377	37.1709133839363659035	39.8309485831762017938	54.0361769717875262131
5.0.14.0	win	042419	23:21:44	005	1	game	3	iti	567	1	142	142	1	0	2000	307	2	1	1	34	34	28	31	28	7934	28	2	1	62	28	38	53	64.0901210570293642377	37.1709133839363659035	39.8309485831762017938	54.0361769717875262131
5.0.14.0	win	042419	23:21:44	005	1	game	3	selection	568	1	143	143	1	slot2	275	275	2	2	1	34	34	28	31	28	7973	39	2	1	64	39	40	48	66.9016450769437085455	41.2603093515025207694	40.5882311989883461933	54.8124081951857959893
5.0.14.0	win	042419	23:21:44	005	1	game	3	iti	571	1	143	143	1	0	2000	275	2	2	2	39	34	39	31	28	7973	39	2	1	64	39	40	48	66.9016450769437085455	41.2603093515025207694	40.5882311989883461933	54.8124081951857959893
5.0.14.0	win	042419	23:21:44	005	1	game	3	selection	572	1	144	144	1	slot2	303	303	2	1	2	39	34	39	31	28	8021	48	2	1	63	48	41	52	64.0377103565889882475	44.7271988801307358585	41.4581119298171429932	49.2392261440500575986
5.0.14.0	win	042419	23:21:44	005	1	game	3	iti	575	1	144	144	1	0	2000	303	2	1	2	48	34	48	31	28	8021	48	2	1	63	48	41	52	64.0377103565889882475	44.7271988801307358585	41.4581119298171429932	49.2392261440500575986
5.0.14.0	win	042419	23:21:44	005	1	game	3	selection	576	1	145	145	1	slot2	640	640	2	1	2	48	34	48	31	28	8071	50	2	1	60	50	46	53	59.1562039232130985056	47.4982257429254843828	41.6359557551399745989	50.0116718269800273333
5.0.14.0	win	042419	23:21:44	005	1	game	3	iti	579	1	145	145	1	0	2000	640	2	1	2	50	34	50	31	28	8071	50	2	1	60	50	46	53	59.1562039232130985056	47.4982257429254843828	41.6359557551399745989	50.0116718269800273333
5.0.14.0	win	042419	23:21:44	005	1	game	3	selection	580	1	146	146	1	slot2	269	269	2	1	2	50	34	50	31	28	8122	51	2	4	57	51	30	60	59.8652557358535304388	47.4609344064075315828	40.0771418853709064933	53.0646200189925494328
5.0.14.0	win	042419	23:21:44	005	1	game	3	iti	583	1	146	146	1	0	2000	269	2	1	2	51	34	51	31	28	8122	51	2	4	57	51	30	60	59.8652557358535304388	47.4609344064075315828	40.0771418853709064933	53.0646200189925494328
5.0.14.0	win	042419	23:21:44	005	1	game	3	selection	584	1	147	147	1	slot2	231	231	2	1	2	51	34	51	31	28	8172	50	2	1	59	50	41	57	59.6147768477986375046	49.2998549940614765319	40.7599648458351992986	50.9441271710703418307
5.0.14.0	win	042419	23:21:44	005	1	game	3	iti	587	1	147	147	1	0	2000	231	2	1	2	50	34	50	31	28	8172	50	2	1	59	50	41	57	59.6147768477986375046	49.2998549940614765319	40.7599648458351992986	50.9441271710703418307
5.0.14.0	win	042419	23:21:44	005	1	game	3	selection	588	1	148	148	1	slot2	277	277	2	1	2	50	34	50	31	28	8224	52	2	1	62	52	44	54	59.5012835613107853305	46.22070352436014673	43.5077593825778663472	51.2019350650196756192
5.0.14.0	win	042419	23:21:44	005	1	game	3	iti	591	1	148	148	1	0	2000	277	2	1	2	52	34	52	31	28	8224	52	2	1	62	52	44	54	59.5012835613107853305	46.22070352436014673	43.5077593825778663472	51.2019350650196756192
5.0.14.0	win	042419	23:21:44	005	1	game	3	selection	592	1	149	149	1	slot2	289	289	2	1	2	52	34	52	31	28	8275	51	2	1	58	51	38	47	63.0090360115150645015	47.9260524845191753229	41.8627276508670860267	51.2684793948388488616
5.0.14.0	win	042419	23:21:44	005	1	game	3	iti	595	1	149	149	1	0	2000	289	2	1	2	51	34	51	31	28	8275	51	2	1	58	51	38	47	63.0090360115150645015	47.9260524845191753229	41.8627276508670860267	51.2684793948388488616
5.0.14.0	win	042419	23:21:44	005	1	game	3	selection	596	1	150	150	1	slot2	340	340	2	1	2	51	34	51	31	28	8326	51	2	1	55	51	32	47	58.988649254433781266	49.6813477571737820426	38.5653937911047179909	50.9549142848171570108
5.0.14.0	win	042419	23:21:44	005	1	game	3	iti	599	1	150	150	1	0	2000	340	2	1	2	51	34	51	31	28	8326	51	2	1	55	51	32	47	58.988649254433781266	49.6813477571737820426	38.5653937911047179909	50.9549142848171570108
