build	computer.platform	date	time	subject	group	blockcode	blocknum	trialcode	trialnum	values.countRounds	values.TotaltrialCount	values.trialCount_perRound	values.noResponseCount	response	latency	values.selectionRT	values.selectedSlot	values.choice	values.currenthighestSeenPayOffSlot	values.currenthighestSeenPayOff	values.lastSeenPayOff1	values.lastSeenPayOff2	values.lastSeenPayOff3	values.lastSeenPayOff4	values.total	values.currentPayoff	values.highestPayOffSelected	values.currentHighestPayOffSlot	values.payOff1	values.payOff2	values.payOff3	values.payOff4	values.mean1	values.mean2	values.mean3	values.mean4
5.0.14.0	win	042419	23:04:49	005	1	demo	1	selection	2	0	1	1	0	slot1	892	892	1	2	0	0	0	0	0	0	-30	-30	2	2	-30	-20	-29	-37	-30.1815470348222802954	-14.1482711516585659695	-23.7841779891002254033	-37.0580048353419471141
5.0.14.0	win	042419	23:04:49	005	1	demo	1	iti	5	0	1	1	0	0	2000	892	1	2	2	0	-30	0	0	0	-30	-30	2	2	-30	-20	-29	-37	-30.1815470348222802954	-14.1482711516585659695	-23.7841779891002254033	-37.0580048353419471141
5.0.14.0	win	042419	23:04:49	005	1	demo	1	selection	6	0	2	2	0	slot2	1137	1137	2	1	2	0	-30	0	0	0	-47	-17	1	2	-24	-17	-28	-44	-26.9559512643718015568	-13.633230031036728036	-27.7878434044645423739	-41.6530382935715408621
5.0.14.0	win	042419	23:04:49	005	1	demo	1	iti	9	0	2	2	0	0	2000	1137	2	1	3	0	-30	-17	0	0	-47	-17	1	2	-24	-17	-28	-44	-26.9559512643718015568	-13.633230031036728036	-27.7878434044645423739	-41.6530382935715408621
5.0.14.0	win	042419	23:04:49	005	1	demo	1	selection	10	0	3	3	0	slot3	734	734	3	1	3	0	-30	-17	0	0	-79	-32	2	2	-24	-17	-32	-42	-24.5013724517604991604	-12.0928996355036009192	-33.9012601423066541884	-41.3922715761166628567
5.0.14.0	win	042419	23:04:49	005	1	demo	1	iti	13	0	3	3	0	0	2000	734	3	1	4	0	-30	-17	-32	0	-79	-32	2	2	-24	-17	-32	-42	-24.5013724517604991604	-12.0928996355036009192	-33.9012601423066541884	-41.3922715761166628567
5.0.14.0	win	042419	23:04:49	005	1	demo	1	selection	14	0	4	4	0	slot4	732	732	4	1	4	0	-30	-17	-32	0	-122	-43	2	2	-29	-16	-27	-43	-24.756833321890468369	-11.0373487044727340844	-30.3532975349789566621	-44.6757332209856414806
5.0.14.0	win	042419	23:04:49	005	1	demo	1	iti	17	0	4	4	0	0	2000	732	4	1	2	-17	-30	-17	-32	-43	-122	-43	2	2	-29	-16	-27	-43	-24.756833321890468369	-11.0373487044727340844	-30.3532975349789566621	-44.6757332209856414806
5.0.14.0	win	042419	23:04:49	005	1	demo	1	selection	18	0	5	5	1	0	1500	1500	0	0	2	-17	-30	-17	-32	-43	-122	0	0	2	-18	-6	-29	-44	-27.1676019698286523862	-8.3148228033934081793	-25.5175874480075179918	-44.8503140527453325603
5.0.14.0	win	042419	23:04:49	005	1	demo	1	iti	20	0	5	5	1	0	2000	1500	0	0	2	-17	-30	-17	-32	-43	-122	0	0	2	-18	-6	-29	-44	-27.1676019698286523862	-8.3148228033934081793	-25.5175874480075179918	-44.8503140527453325603
5.0.14.0	win	042419	23:04:49	005	1	game	3	selection	1	1	1	1	0	slot2	521	521	2	2	0	0	0	0	0	0	-61	-61	2	3	-78	-61	-15	-43	-80.702051934714418735	-57.6198163124084388187	-17.6621321166404499081	-42.6198327189190990794
5.0.14.0	win	042419	23:04:49	005	1	game	3	iti	4	1	1	1	0	0	2000	521	2	2	1	0	0	-61	0	0	-61	-61	2	3	-78	-61	-15	-43	-80.702051934714418735	-57.6198163124084388187	-17.6621321166404499081	-42.6198327189190990794
5.0.14.0	win	042419	23:04:49	005	1	game	3	selection	5	1	2	2	0	slot1	791	791	1	1	1	0	0	-61	0	0	-136	-75	2	3	-75	-58	-17	-41	-79.6157325327207132659	-61.8179001165624484315	-20.3408264285742177435	-42.0676884110531688066
5.0.14.0	win	042419	23:04:49	005	1	game	3	iti	8	1	2	2	0	0	2000	791	1	1	3	0	-75	-61	0	0	-136	-75	2	3	-75	-58	-17	-41	-79.6157325327207132659	-61.8179001165624484315	-20.3408264285742177435	-42.0676884110531688066
5.0.14.0	win	042419	23:04:49	005	1	game	3	selection	9	1	3	3	0	slot2	563	563	2	2	3	0	-75	-61	0	0	-199	-63	2	3	-81	-63	-24	-49	-79.175659755817491714	-63.5469706572665700151	-25.8560712059479662628	-47.1897343315773909467
5.0.14.0	win	042419	23:04:49	005	1	game	3	iti	12	1	3	3	0	0	2000	563	2	2	3	0	-75	-63	0	0	-199	-63	2	3	-81	-63	-24	-49	-79.175659755817491714	-63.5469706572665700151	-25.8560712059479662628	-47.1897343315773909467
5.0.14.0	win	042419	23:04:49	005	1	game	3	selection	13	1	4	4	0	slot3	689	689	3	1	3	0	-75	-63	0	0	-218	-19	1	3	-73	-65	-19	-55	-76.0165260786471463916	-63.5798201277262151621	-24.9530301567533996376	-49.0143710012265430009
5.0.14.0	win	042419	23:04:49	005	1	game	3	iti	16	1	4	4	0	0	2000	689	3	1	4	0	-75	-63	-19	0	-218	-19	1	3	-73	-65	-19	-55	-76.0165260786471463916	-63.5798201277262151621	-24.9530301567533996376	-49.0143710012265430009
5.0.14.0	win	042419	23:04:49	005	1	game	3	selection	17	1	5	5	0	slot3	593	593	3	2	4	0	-75	-63	-19	0	-245	-27	1	3	-74	-57	-27	-49	-79.5724751082820063175	-60.9248713734820768195	-24.8922555710002413321	-50.4212930562123347045
5.0.14.0	win	042419	23:04:49	005	1	game	3	iti	20	1	5	5	0	0	2000	593	3	2	4	0	-75	-63	-27	0	-245	-27	1	3	-74	-57	-27	-49	-79.5724751082820063175	-60.9248713734820768195	-24.8922555710002413321	-50.4212930562123347045
5.0.14.0	win	042419	23:04:49	005	1	game	3	selection	21	1	6	6	0	slot4	758	758	4	1	4	0	-75	-63	-27	0	-298	-53	2	3	-74	-56	-32	-53	-73.8193216633125217641	-61.3294660177358892383	-28.2104484636973538159	-55.4319591933808908379
5.0.14.0	win	042419	23:04:49	005	1	game	3	iti	24	1	6	6	0	0	2000	758	4	1	3	-27	-75	-63	-27	-53	-298	-53	2	3	-74	-56	-32	-53	-73.8193216633125217641	-61.3294660177358892383	-28.2104484636973538159	-55.4319591933808908379
5.0.14.0	win	042419	23:04:49	005	1	game	3	selection	25	1	7	7	0	slot3	520	520	3	1	3	-27	-75	-63	-27	-53	-327	-29	1	3	-79	-57	-29	-55	-75.5051876971286333173	-59.8912636517020686711	-32.1924670679500977144	-52.8060393447593483529
5.0.14.0	win	042419	23:04:49	005	1	game	3	iti	28	1	7	7	0	0	2000	520	3	1	3	-29	-75	-63	-29	-53	-327	-29	1	3	-79	-57	-29	-55	-75.5051876971286333173	-59.8912636517020686711	-32.1924670679500977144	-52.8060393447593483529
5.0.14.0	win	042419	23:04:49	005	1	game	3	selection	29	1	8	8	0	slot3	507	507	3	1	3	-29	-75	-63	-29	-53	-361	-34	1	3	-71	-56	-34	-54	-76.6628097928386154081	-58.2112376560710913509	-35.1252909734421479016	-53.9378958854823409297
5.0.14.0	win	042419	23:04:49	005	1	game	3	iti	32	1	8	8	0	0	2000	507	3	1	3	-34	-75	-63	-34	-53	-361	-34	1	3	-71	-56	-34	-54	-76.6628097928386154081	-58.2112376560710913509	-35.1252909734421479016	-53.9378958854823409297
5.0.14.0	win	042419	23:04:49	005	1	game	3	selection	33	1	9	9	0	slot4	620	620	4	2	3	-34	-75	-63	-34	-53	-419	-58	2	3	-75	-62	-35	-58	-73.9859449470459367149	-58.7271697100570904126	-35.5891044170961592386	-55.9773073629855772992
5.0.14.0	win	042419	23:04:49	005	1	game	3	iti	36	1	9	9	0	0	2000	620	4	2	3	-34	-75	-63	-34	-58	-419	-58	2	3	-75	-62	-35	-58	-73.9859449470459367149	-58.7271697100570904126	-35.5891044170961592386	-55.9773073629855772992
5.0.14.0	win	042419	23:04:49	005	1	game	3	selection	37	1	10	10	0	slot3	584	584	3	1	3	-34	-75	-63	-34	-58	-459	-40	1	3	-69	-55	-40	-54	-68.8597889690597497747	-59.080711447659943758	-40.0961603345710173585	-53.0760171814763950238
5.0.14.0	win	042419	23:04:49	005	1	game	3	iti	40	1	10	10	0	0	2000	584	3	1	3	-40	-75	-63	-40	-58	-459	-40	1	3	-69	-55	-40	-54	-68.8597889690597497747	-59.080711447659943758	-40.0961603345710173585	-53.0760171814763950238
5.0.14.0	win	042419	23:04:49	005	1	game	3	selection	41	1	11	11	0	slot2	501	501	2	2	3	-40	-75	-63	-40	-58	-521	-62	2	3	-74	-62	-39	-43	-73.7685364562527610133	-57.8671667640037341585	-38.5231492725448916303	-47.706435603228946718
5.0.14.0	win	042419	23:04:49	005	1	game	3	iti	44	1	11	11	0	0	2000	501	2	2	3	-40	-75	-62	-40	-58	-521	-62	2	3	-74	-62	-39	-43	-73.7685364562527610133	-57.8671667640037341585	-38.5231492725448916303	-47.706435603228946718
5.0.14.0	win	042419	23:04:49	005	1	game	3	selection	45	1	12	12	0	slot1	542	542	1	2	3	-40	-75	-62	-40	-58	-595	-74	2	3	-74	-70	-42	-45	-71.4680061228923761973	-63.5832197358070416726	-40.8049798578706415242	-48.6177172628799709742
5.0.14.0	win	042419	23:04:49	005	1	game	3	iti	48	1	12	12	0	0	2000	542	1	2	3	-40	-74	-62	-40	-58	-595	-74	2	3	-74	-70	-42	-45	-71.4680061228923761973	-63.5832197358070416726	-40.8049798578706415242	-48.6177172628799709742
5.0.14.0	win	042419	23:04:49	005	1	game	3	selection	49	1	13	13	0	slot3	519	519	3	1	3	-40	-74	-62	-40	-58	-637	-42	1	3	-71	-59	-42	-57	-73.635311080149818963	-60.3169895225117187465	-42.1012760814382929198	-50.2034931089458780207
5.0.14.0	win	042419	23:04:49	005	1	game	3	iti	52	1	13	13	0	0	2000	519	3	1	3	-42	-74	-62	-42	-58	-637	-42	1	3	-71	-59	-42	-57	-73.635311080149818963	-60.3169895225117187465	-42.1012760814382929198	-50.2034931089458780207
5.0.14.0	win	042419	23:04:49	005	1	game	3	selection	53	1	14	14	0	slot4	490	490	4	2	3	-42	-74	-62	-42	-58	-699	-62	2	3	-69	-56	-40	-62	-74.6248715832192601738	-55.9950423569202726526	-41.6030414191002364532	-52.0129321086340610236
5.0.14.0	win	042419	23:04:49	005	1	game	3	iti	56	1	14	14	0	0	2000	490	4	2	3	-42	-74	-62	-42	-62	-699	-62	2	3	-69	-56	-40	-62	-74.6248715832192601738	-55.9950423569202726526	-41.6030414191002364532	-52.0129321086340610236
5.0.14.0	win	042419	23:04:49	005	1	game	3	selection	57	1	15	15	0	slot3	533	533	3	1	3	-42	-74	-62	-42	-62	-740	-41	1	3	-66	-55	-41	-52	-70.7558027921844825414	-52.0286070307035473093	-43.5865122702164455859	-49.4555607341369238839
5.0.14.0	win	042419	23:04:49	005	1	game	3	iti	60	1	15	15	0	0	2000	533	3	1	3	-41	-74	-62	-41	-62	-740	-41	1	3	-66	-55	-41	-52	-70.7558027921844825414	-52.0286070307035473093	-43.5865122702164455859	-49.4555607341369238839
5.0.14.0	win	042419	23:04:49	005	1	game	3	selection	61	1	16	16	0	slot3	430	430	3	1	3	-41	-74	-62	-41	-62	-790	-50	2	2	-70	-43	-50	-51	-72.0359338674424094506	-51.0466272545663244387	-43.6172790184152034954	-47.431395980596292361
5.0.14.0	win	042419	23:04:49	005	1	game	3	iti	64	1	16	16	0	0	2000	430	3	1	3	-50	-74	-62	-50	-62	-790	-50	2	2	-70	-43	-50	-51	-72.0359338674424094506	-51.0466272545663244387	-43.6172790184152034954	-47.431395980596292361
5.0.14.0	win	042419	23:04:49	005	1	game	3	selection	65	1	17	17	0	slot3	492	492	3	1	3	-50	-74	-62	-50	-62	-842	-52	1	3	-70	-56	-52	-57	-68.0285858252256190326	-52.9035433609107101915	-46.6776913037617759983	-48.5578035535372904974
5.0.14.0	win	042419	23:04:49	005	1	game	3	iti	68	1	17	17	0	0	2000	492	3	1	3	-52	-74	-62	-52	-62	-842	-52	1	3	-70	-56	-52	-57	-68.0285858252256190326	-52.9035433609107101915	-46.6776913037617759983	-48.5578035535372904974
5.0.14.0	win	042419	23:04:49	005	1	game	3	selection	69	1	18	18	0	slot3	931	931	3	1	3	-52	-74	-62	-52	-62	-884	-42	1	3	-73	-50	-42	-51	-70.2716926573493196884	-51.5905557119397073507	-44.3769285563760931268	-46.9571021178657801443
5.0.14.0	win	042419	23:04:49	005	1	game	3	iti	72	1	18	18	0	0	2000	931	3	1	3	-42	-74	-62	-42	-62	-884	-42	1	3	-73	-50	-42	-51	-70.2716926573493196884	-51.5905557119397073507	-44.3769285563760931268	-46.9571021178657801443
5.0.14.0	win	042419	23:04:49	005	1	game	3	selection	73	1	19	19	0	slot2	619	619	2	2	3	-42	-74	-62	-42	-62	-940	-56	2	4	-70	-56	-47	-35	-69.8410895892639587146	-53.2022774708627821383	-43.7033416560071472645	-40.1651193597016344938
5.0.14.0	win	042419	23:04:49	005	1	game	3	iti	76	1	19	19	0	0	2000	619	2	2	3	-42	-74	-56	-42	-62	-940	-56	2	4	-70	-56	-47	-35	-69.8410895892639587146	-53.2022774708627821383	-43.7033416560071472645	-40.1651193597016344938
5.0.14.0	win	042419	23:04:49	005	1	game	3	selection	77	1	20	20	0	slot4	371	371	4	2	3	-42	-74	-56	-42	-62	-978	-38	1	4	-68	-56	-46	-38	-63.7943293147149645961	-57.3146502561886634908	-48.0692186086225135	-38.2413976331664855479
5.0.14.0	win	042419	23:04:49	005	1	game	3	iti	80	1	20	20	0	0	2000	371	4	2	4	-38	-74	-56	-42	-38	-978	-38	1	4	-68	-56	-46	-38	-63.7943293147149645961	-57.3146502561886634908	-48.0692186086225135	-38.2413976331664855479
5.0.14.0	win	042419	23:04:49	005	1	game	3	selection	81	1	21	21	0	slot4	526	526	4	1	4	-38	-74	-56	-42	-38	-1018	-40	1	4	-57	-59	-44	-40	-65.2197035257521093854	-56.5995243077746792437	-47.0517525020532332292	-40.8225824136165655887
5.0.14.0	win	042419	23:04:49	005	1	game	3	iti	84	1	21	21	0	0	2000	526	4	1	4	-40	-74	-56	-42	-40	-1018	-40	1	4	-57	-59	-44	-40	-65.2197035257521093854	-56.5995243077746792437	-47.0517525020532332292	-40.8225824136165655887
5.0.14.0	win	042419	23:04:49	005	1	game	3	selection	85	1	22	22	0	slot4	390	390	4	1	4	-40	-74	-56	-42	-40	-1055	-37	1	4	-59	-61	-45	-37	-62.36238953309253219	-59.4432773213198686335	-48.7753162573795222556	-40.1442297129282863466
5.0.14.0	win	042419	23:04:49	005	1	game	3	iti	88	1	22	22	0	0	2000	390	4	1	4	-37	-74	-56	-42	-37	-1055	-37	1	4	-59	-61	-45	-37	-62.36238953309253219	-59.4432773213198686335	-48.7753162573795222556	-40.1442297129282863466
5.0.14.0	win	042419	23:04:49	005	1	game	3	selection	89	1	23	23	0	slot3	311	311	3	2	4	-37	-74	-56	-42	-37	-1110	-55	2	4	-52	-58	-55	-29	-60.079771724410491629	-57.1089163731373332666	-46.7451698582903318879	-34.8724849828880820723
5.0.14.0	win	042419	23:04:49	005	1	game	3	iti	92	1	23	23	0	0	2000	311	3	2	4	-37	-74	-56	-55	-37	-1110	-55	2	4	-52	-58	-55	-29	-60.079771724410491629	-57.1089163731373332666	-46.7451698582903318879	-34.8724849828880820723
5.0.14.0	win	042419	23:04:49	005	1	game	3	selection	93	1	24	24	0	slot4	402	402	4	1	4	-37	-74	-56	-55	-37	-1144	-34	1	4	-65	-60	-47	-34	-63.8976570852506497999	-56.5094256679407678234	-47.8116830073184857497	-39.1568186344502606744
5.0.14.0	win	042419	23:04:49	005	1	game	3	iti	96	1	24	24	0	0	2000	402	4	1	4	-34	-74	-56	-55	-34	-1144	-34	1	4	-65	-60	-47	-34	-63.8976570852506497999	-56.5094256679407678234	-47.8116830073184857497	-39.1568186344502606744
5.0.14.0	win	042419	23:04:49	005	1	game	3	selection	97	1	25	25	0	slot4	317	317	4	1	4	-34	-74	-56	-55	-34	-1188	-44	1	4	-63	-57	-52	-44	-64.2876185336642862467	-60.4633323954443611115	-48.8736331803609616031	-42.1809908262710777649
5.0.14.0	win	042419	23:04:49	005	1	game	3	iti	100	1	25	25	0	0	2000	317	4	1	4	-44	-74	-56	-55	-44	-1188	-44	1	4	-63	-57	-52	-44	-64.2876185336642862467	-60.4633323954443611115	-48.8736331803609616031	-42.1809908262710777649
5.0.14.0	win	042419	23:04:49	005	1	game	3	selection	101	1	26	26	0	slot4	292	292	4	1	4	-44	-74	-56	-55	-44	-1219	-31	1	4	-71	-55	-50	-31	-65.5562350075253732484	-60.6388923645685977704	-44.2504757193975422069	-36.1716938044768525629
5.0.14.0	win	042419	23:04:49	005	1	game	3	iti	104	1	26	26	0	0	2000	292	4	1	4	-31	-74	-56	-55	-31	-1219	-31	1	4	-71	-55	-50	-31	-65.5562350075253732484	-60.6388923645685977704	-44.2504757193975422069	-36.1716938044768525629
5.0.14.0	win	042419	23:04:49	005	1	game	3	selection	105	1	27	27	0	slot4	298	298	4	1	4	-31	-74	-56	-55	-31	-1256	-37	1	4	-74	-63	-39	-37	-68.5365880254597499288	-60.6729955089165002846	-38.4605106740836930612	-36.8008567345787298564
5.0.14.0	win	042419	23:04:49	005	1	game	3	iti	108	1	27	27	0	0	2000	298	4	1	4	-37	-74	-56	-55	-37	-1256	-37	1	4	-74	-63	-39	-37	-68.5365880254597499288	-60.6729955089165002846	-38.4605106740836930612	-36.8008567345787298564
5.0.14.0	win	042419	23:04:49	005	1	game	3	selection	109	1	28	28	0	slot4	233	233	4	1	4	-37	-74	-56	-55	-37	-1292	-36	1	4	-69	-53	-46	-36	-67.6153727639773478586	-56.5239402881900900866	-40.7959910418345401695	-36.0629007563475312281
5.0.14.0	win	042419	23:04:49	005	1	game	3	iti	112	1	28	28	0	0	2000	233	4	1	4	-36	-74	-56	-55	-36	-1292	-36	1	4	-69	-53	-46	-36	-67.6153727639773478586	-56.5239402881900900866	-40.7959910418345401695	-36.0629007563475312281
5.0.14.0	win	042419	23:04:49	005	1	game	3	selection	113	1	29	29	0	slot4	272	272	4	1	4	-36	-74	-56	-55	-36	-1330	-38	1	4	-65	-59	-42	-38	-64.3973869688859963389	-58.6658059762841617157	-40.1642174417496917727	-36.2422430072793275713
5.0.14.0	win	042419	23:04:49	005	1	game	3	iti	116	1	29	29	0	0	2000	272	4	1	4	-38	-74	-56	-55	-38	-1330	-38	1	4	-65	-59	-42	-38	-64.3973869688859963389	-58.6658059762841617157	-40.1642174417496917727	-36.2422430072793275713
5.0.14.0	win	042419	23:04:49	005	1	game	3	selection	117	1	30	30	0	slot4	346	346	4	1	4	-38	-74	-56	-55	-38	-1367	-37	2	3	-62	-55	-35	-37	-61.1226850089453463966	-58.235275318091495933	-38.9991926249323341835	-35.1588863134343725392
5.0.14.0	win	042419	23:04:49	005	1	game	3	iti	120	1	30	30	0	0	2000	346	4	1	4	-37	-74	-56	-55	-37	-1367	-37	2	3	-62	-55	-35	-37	-61.1226850089453463966	-58.235275318091495933	-38.9991926249323341835	-35.1588863134343725392
5.0.14.0	win	042419	23:04:49	005	1	game	3	selection	121	1	31	31	0	slot4	378	378	4	1	4	-37	-74	-56	-55	-37	-1401	-34	1	4	-61	-70	-45	-34	-58.4133567672320452857	-58.4822739708676451187	-44.0228218074807244875	-32.9733507862292469781
5.0.14.0	win	042419	23:04:49	005	1	game	3	iti	124	1	31	31	0	0	2000	378	4	1	4	-34	-74	-56	-55	-34	-1401	-34	1	4	-61	-70	-45	-34	-58.4133567672320452857	-58.4822739708676451187	-44.0228218074807244875	-32.9733507862292469781
5.0.14.0	win	042419	23:04:49	005	1	game	3	selection	125	1	32	32	0	slot4	425	425	4	1	4	-34	-74	-56	-55	-34	-1430	-29	1	4	-61	-54	-55	-29	-63.2737896129597245931	-58.6913802498265297913	-48.854982782181913592	-32.9676117985169057079
5.0.14.0	win	042419	23:04:49	005	1	game	3	iti	128	1	32	32	0	0	2000	425	4	1	4	-29	-74	-56	-55	-29	-1430	-29	1	4	-61	-54	-55	-29	-63.2737896129597245931	-58.6913802498265297913	-48.854982782181913592	-32.9676117985169057079
5.0.14.0	win	042419	23:04:49	005	1	game	3	selection	129	1	33	33	0	slot4	374	374	4	1	4	-29	-74	-56	-55	-29	-1466	-36	1	4	-63	-57	-47	-36	-62.9069623707811302893	-60.5857794467180710285	-45.9453974507464266708	-28.7715506475199589431
5.0.14.0	win	042419	23:04:49	005	1	game	3	iti	132	1	33	33	0	0	2000	374	4	1	4	-36	-74	-56	-55	-36	-1466	-36	1	4	-63	-57	-47	-36	-62.9069623707811302893	-60.5857794467180710285	-45.9453974507464266708	-28.7715506475199589431
5.0.14.0	win	042419	23:04:49	005	1	game	3	selection	133	1	34	34	0	slot4	310	310	4	1	4	-36	-74	-56	-55	-36	-1494	-28	1	4	-63	-67	-46	-28	-64.1620210313047891759	-61.8346154532981984175	-44.8814237827923108171	-28.0869927061116797518
5.0.14.0	win	042419	23:04:49	005	1	game	3	iti	136	1	34	34	0	0	2000	310	4	1	4	-28	-74	-56	-55	-28	-1494	-28	1	4	-63	-67	-46	-28	-64.1620210313047891759	-61.8346154532981984175	-44.8814237827923108171	-28.0869927061116797518
5.0.14.0	win	042419	23:04:49	005	1	game	3	selection	137	1	35	35	0	slot4	456	456	4	1	4	-28	-74	-56	-55	-28	-1532	-38	1	4	-66	-58	-49	-38	-64.4919507792928072831	-60.4375058989849378577	-49.2570569203735502128	-32.7218580642317249385
5.0.14.0	win	042419	23:04:49	005	1	game	3	iti	140	1	35	35	0	0	2000	456	4	1	4	-38	-74	-56	-55	-38	-1532	-38	1	4	-66	-58	-49	-38	-64.4919507792928072831	-60.4375058989849378577	-49.2570569203735502128	-32.7218580642317249385
5.0.14.0	win	042419	23:04:49	005	1	game	3	selection	141	1	36	36	0	slot4	415	415	4	1	4	-38	-74	-56	-55	-38	-1579	-47	2	3	-56	-55	-43	-47	-62.1402415074385885418	-55.4960015740120695682	-49.3101380955271366702	-38.6300831862194371524
5.0.14.0	win	042419	23:04:49	005	1	game	3	iti	144	1	36	36	0	0	2000	415	4	1	4	-47	-74	-56	-55	-47	-1579	-47	2	3	-56	-55	-43	-47	-62.1402415074385885418	-55.4960015740120695682	-49.3101380955271366702	-38.6300831862194371524
5.0.14.0	win	042419	23:04:49	005	1	game	3	selection	145	1	37	37	0	slot4	505	505	4	1	4	-47	-74	-56	-55	-47	-1611	-32	1	4	-65	-52	-54	-32	-65.4883515697195548455	-56.429890280806375813	-49.5996800542133513545	-36.1866969964700047058
5.0.14.0	win	042419	23:04:49	005	1	game	3	iti	148	1	37	37	0	0	2000	505	4	1	4	-32	-74	-56	-55	-32	-1611	-32	1	4	-65	-52	-54	-32	-65.4883515697195548455	-56.429890280806375813	-49.5996800542133513545	-36.1866969964700047058
5.0.14.0	win	042419	23:04:49	005	1	game	3	selection	149	1	38	38	0	slot4	374	374	4	1	4	-32	-74	-56	-55	-32	-1646	-35	1	4	-65	-60	-39	-35	-65.5406744394572342571	-59.1782722611155875825	-46.0091118453021010737	-34.630146310679165822
5.0.14.0	win	042419	23:04:49	005	1	game	3	iti	152	1	38	38	0	0	2000	374	4	1	4	-35	-74	-56	-55	-35	-1646	-35	1	4	-65	-60	-39	-35	-65.5406744394572342571	-59.1782722611155875825	-46.0091118453021010737	-34.630146310679165822
5.0.14.0	win	042419	23:04:49	005	1	game	3	selection	153	1	39	39	0	slot4	398	398	4	1	4	-35	-74	-56	-55	-35	-1693	-47	1	4	-63	-55	-52	-47	-65.8077583604477069912	-61.5449672973355959016	-48.9130645976923261742	-38.7960970570421537218
5.0.14.0	win	042419	23:04:49	005	1	game	3	iti	156	1	39	39	0	0	2000	398	4	1	4	-47	-74	-56	-55	-47	-1693	-47	1	4	-63	-55	-52	-47	-65.8077583604477069912	-61.5449672973355959016	-48.9130645976923261742	-38.7960970570421537218
5.0.14.0	win	042419	23:04:49	005	1	game	3	selection	157	1	40	40	0	slot2	297	297	2	2	4	-47	-74	-56	-55	-47	-1747	-54	2	4	-59	-54	-45	-42	-63.6972224423904265223	-59.0993212388836894888	-50.0707505958125551615	-39.8175368830453564328
5.0.14.0	win	042419	23:04:49	005	1	game	3	iti	160	1	40	40	0	0	2000	297	2	2	4	-47	-74	-54	-55	-47	-1747	-54	2	4	-59	-54	-45	-42	-63.6972224423904265223	-59.0993212388836894888	-50.0707505958125551615	-39.8175368830453564328
5.0.14.0	win	042419	23:04:49	005	1	game	3	selection	161	1	41	41	0	slot1	620	620	1	2	4	-47	-74	-54	-55	-47	-1812	-65	2	4	-65	-59	-55	-33	-63.0560654883082349897	-57.0206047728397535934	-50.1121396320705159155	-37.3321606045181937361
5.0.14.0	win	042419	23:04:49	005	1	game	3	iti	164	1	41	41	0	0	2000	620	1	2	4	-47	-65	-54	-55	-47	-1812	-65	2	4	-65	-59	-55	-33	-63.0560654883082349897	-57.0206047728397535934	-50.1121396320705159155	-37.3321606045181937361
5.0.14.0	win	042419	23:04:49	005	1	game	3	selection	165	1	42	42	0	slot3	540	540	3	2	4	-47	-65	-54	-55	-47	-1865	-53	2	4	-71	-52	-53	-42	-65.7597431689081588502	-55.3024491987781274815	-51.5504487150483612368	-38.826081258648443395
5.0.14.0	win	042419	23:04:49	005	1	game	3	iti	168	1	42	42	0	0	2000	540	3	2	4	-47	-65	-54	-53	-47	-1865	-53	2	4	-71	-52	-53	-42	-65.7597431689081588502	-55.3024491987781274815	-51.5504487150483612368	-38.826081258648443395
5.0.14.0	win	042419	23:04:49	005	1	game	3	selection	169	1	43	43	0	slot4	388	388	4	1	4	-47	-65	-54	-53	-47	-1908	-43	1	4	-76	-58	-61	-43	-69.4411395088723253366	-55.6090989196323377541	-53.6428582671416052108	-40.5555364437479823891
5.0.14.0	win	042419	23:04:49	005	1	game	3	iti	172	1	43	43	0	0	2000	388	4	1	4	-43	-65	-54	-53	-43	-1908	-43	1	4	-76	-58	-61	-43	-69.4411395088723253366	-55.6090989196323377541	-53.6428582671416052108	-40.5555364437479823891
5.0.14.0	win	042419	23:04:49	005	1	game	3	selection	173	1	44	44	0	slot4	483	483	4	1	4	-43	-65	-54	-53	-43	-1955	-47	2	3	-67	-59	-44	-47	-69.170743690395013914	-52.8260222849443152882	-46.2571891983268272952	-41.9176989818207132998
5.0.14.0	win	042419	23:04:49	005	1	game	3	iti	176	1	44	44	0	0	2000	483	4	1	4	-47	-65	-54	-53	-47	-1955	-47	2	3	-67	-59	-44	-47	-69.170743690395013914	-52.8260222849443152882	-46.2571891983268272952	-41.9176989818207132998
5.0.14.0	win	042419	23:04:49	005	1	game	3	selection	177	1	45	45	0	slot4	335	335	4	1	4	-47	-65	-54	-53	-47	-1994	-39	1	4	-74	-56	-49	-39	-69.896198657534995391	-53.8140187924013204679	-51.6293638122372442467	-42.8443519762399276374
5.0.14.0	win	042419	23:04:49	005	1	game	3	iti	180	1	45	45	0	0	2000	335	4	1	4	-39	-65	-54	-53	-39	-1994	-39	1	4	-74	-56	-49	-39	-69.896198657534995391	-53.8140187924013204679	-51.6293638122372442467	-42.8443519762399276374
5.0.14.0	win	042419	23:04:49	005	1	game	3	selection	181	1	46	46	0	slot4	230	230	4	1	4	-39	-65	-54	-53	-39	-2034	-40	1	4	-71	-59	-45	-40	-69.1065678937375622581	-51.9899734879565968981	-50.9022533483054715475	-40.4769699715689057484
5.0.14.0	win	042419	23:04:49	005	1	game	3	iti	184	1	46	46	0	0	2000	230	4	1	4	-40	-65	-54	-53	-40	-2034	-40	1	4	-71	-59	-45	-40	-69.1065678937375622581	-51.9899734879565968981	-50.9022533483054715475	-40.4769699715689057484
5.0.14.0	win	042419	23:04:49	005	1	game	3	selection	185	1	47	47	0	slot4	448	448	4	1	4	-40	-65	-54	-53	-40	-2082	-48	1	4	-73	-55	-54	-48	-65.9660226570267838042	-53.7090251360053727581	-49.3147945873044477594	-44.006450058697801353
5.0.14.0	win	042419	23:04:49	005	1	game	3	iti	188	1	47	47	0	0	2000	448	4	1	4	-48	-65	-54	-53	-48	-2082	-48	1	4	-73	-55	-54	-48	-65.9660226570267838042	-53.7090251360053727581	-49.3147945873044477594	-44.006450058697801353
5.0.14.0	win	042419	23:04:49	005	1	game	3	selection	189	1	48	48	0	slot4	286	286	4	1	4	-48	-65	-54	-53	-48	-2131	-49	2	3	-72	-47	-42	-49	-66.1021433148751214048	-50.9090791264318625053	-50.2627810285632889986	-47.1905260098628644982
5.0.14.0	win	042419	23:04:49	005	1	game	3	iti	192	1	48	48	0	0	2000	286	4	1	4	-49	-65	-54	-53	-49	-2131	-49	2	3	-72	-47	-42	-49	-66.1021433148751214048	-50.9090791264318625053	-50.2627810285632889986	-47.1905260098628644982
5.0.14.0	win	042419	23:04:49	005	1	game	3	selection	193	1	49	49	0	slot2	314	314	2	2	4	-49	-65	-54	-53	-49	-2183	-52	2	4	-60	-52	-51	-49	-67.8607524947279756589	-49.2025066974925877616	-49.7857783929949988533	-48.421577351431920988
5.0.14.0	win	042419	23:04:49	005	1	game	3	iti	196	1	49	49	0	0	2000	314	2	2	4	-49	-65	-52	-53	-49	-2183	-52	2	4	-60	-52	-51	-49	-67.8607524947279756589	-49.2025066974925877616	-49.7857783929949988533	-48.421577351431920988
5.0.14.0	win	042419	23:04:49	005	1	game	3	selection	197	1	50	50	0	slot3	330	330	3	2	4	-49	-65	-52	-53	-49	-2233	-50	2	4	-69	-55	-50	-47	-68.9616219386112163647	-51.3313574806976475884	-49.0571719798616712183	-53.6796433159710630889
5.0.14.0	win	042419	23:04:49	005	1	game	3	iti	200	1	50	50	0	0	2000	330	3	2	4	-49	-65	-52	-50	-49	-2233	-50	2	4	-69	-55	-50	-47	-68.9616219386112163647	-51.3313574806976475884	-49.0571719798616712183	-53.6796433159710630889
5.0.14.0	win	042419	23:04:49	005	1	game	3	selection	201	1	51	51	0	slot4	323	323	4	1	4	-49	-65	-52	-50	-49	-2295	-62	2	2	-73	-43	-54	-62	-68.7484893246787009957	-49.4758398629567892613	-48.8602882827140518884	-53.4853458134453916273
5.0.14.0	win	042419	23:04:49	005	1	game	3	iti	204	1	51	51	0	0	2000	323	4	1	3	-50	-65	-52	-50	-62	-2295	-62	2	2	-73	-43	-54	-62	-68.7484893246787009957	-49.4758398629567892613	-48.8602882827140518884	-53.4853458134453916273
5.0.14.0	win	042419	23:04:49	005	1	game	3	selection	205	1	52	52	0	slot4	682	682	4	2	3	-50	-65	-52	-50	-62	-2354	-59	2	2	-76	-39	-49	-59	-72.3905147961559549685	-45.5743533549035859664	-48.2947111159712250128	-59.5170675384406422381
5.0.14.0	win	042419	23:04:49	005	1	game	3	iti	208	1	52	52	0	0	2000	682	4	2	3	-50	-65	-52	-50	-59	-2354	-59	2	2	-76	-39	-49	-59	-72.3905147961559549685	-45.5743533549035859664	-48.2947111159712250128	-59.5170675384406422381
5.0.14.0	win	042419	23:04:49	005	1	game	3	selection	209	1	53	53	0	slot2	676	676	2	2	3	-50	-65	-52	-50	-59	-2403	-49	2	3	-69	-49	-48	-61	-71.0103081120577144247	-48.7192029669308439566	-51.0990664911366891943	-59.2492478394484649584
5.0.14.0	win	042419	23:04:49	005	1	game	3	iti	212	1	53	53	0	0	2000	676	2	2	2	-49	-65	-49	-50	-59	-2403	-49	2	3	-69	-49	-48	-61	-71.0103081120577144247	-48.7192029669308439566	-51.0990664911366891943	-59.2492478394484649584
5.0.14.0	win	042419	23:04:49	005	1	game	3	selection	213	1	54	54	0	slot2	655	655	2	1	2	-49	-65	-49	-50	-59	-2454	-51	2	3	-68	-51	-49	-56	-71.1923419936724997115	-49.9553776881279461008	-51.6177332236997941095	-60.0191923184747082587
5.0.14.0	win	042419	23:04:49	005	1	game	3	iti	216	1	54	54	0	0	2000	655	2	1	3	-50	-65	-51	-50	-59	-2454	-51	2	3	-68	-51	-49	-56	-71.1923419936724997115	-49.9553776881279461008	-51.6177332236997941095	-60.0191923184747082587
5.0.14.0	win	042419	23:04:49	005	1	game	3	selection	217	1	55	55	0	slot3	545	545	3	1	3	-50	-65	-51	-50	-59	-2506	-52	2	2	-73	-47	-52	-62	-70.245783027506249141	-51.6717812967640170996	-52.6300611815913370606	-62.7533946687091201966
5.0.14.0	win	042419	23:04:49	005	1	game	3	iti	220	1	55	55	0	0	2000	545	3	1	2	-51	-65	-51	-52	-59	-2506	-52	2	2	-73	-47	-52	-62	-70.245783027506249141	-51.6717812967640170996	-52.6300611815913370606	-62.7533946687091201966
5.0.14.0	win	042419	23:04:49	005	1	game	3	selection	221	1	56	56	0	slot2	330	330	2	1	2	-51	-65	-51	-52	-59	-2561	-55	2	3	-73	-55	-52	-72	-69.3974928478767765228	-48.0520231305667380184	-51.790150786806471217	-65.0670727096677410373
5.0.14.0	win	042419	23:04:49	005	1	game	3	iti	224	1	56	56	0	0	2000	330	2	1	3	-52	-65	-55	-52	-59	-2561	-55	2	3	-73	-55	-52	-72	-69.3974928478767765228	-48.0520231305667380184	-51.790150786806471217	-65.0670727096677410373
5.0.14.0	win	042419	23:04:49	005	1	game	3	selection	225	1	57	57	0	slot3	400	400	3	1	3	-52	-65	-55	-52	-59	-2614	-53	2	2	-63	-43	-53	-69	-67.2495789734606574939	-49.5857092392722265117	-52.0918606151115852754	-68.2241057889381607993
5.0.14.0	win	042419	23:04:49	005	1	game	3	iti	228	1	57	57	0	0	2000	400	3	1	3	-53	-65	-55	-53	-59	-2614	-53	2	2	-63	-43	-53	-69	-67.2495789734606574939	-49.5857092392722265117	-52.0918606151115852754	-68.2241057889381607993
5.0.14.0	win	042419	23:04:49	005	1	game	3	selection	229	1	58	58	0	slot4	335	335	4	2	3	-53	-65	-55	-53	-59	-2679	-65	2	2	-73	-46	-53	-65	-69.6399164786222257817	-54.0834175629446960443	-55.4028518161724576885	-66.6689598551732132137
5.0.14.0	win	042419	23:04:49	005	1	game	3	iti	232	1	58	58	0	0	2000	335	4	2	3	-53	-65	-55	-53	-65	-2679	-65	2	2	-73	-46	-53	-65	-69.6399164786222257817	-54.0834175629446960443	-55.4028518161724576885	-66.6689598551732132137
5.0.14.0	win	042419	23:04:49	005	1	game	3	selection	233	1	59	59	0	slot2	350	350	2	2	3	-53	-65	-55	-53	-65	-2729	-50	1	2	-71	-50	-62	-63	-71.3420086463078888528	-52.8247979495500956659	-60.2899521871106713888	-64.7821655133075182675
5.0.14.0	win	042419	23:04:49	005	1	game	3	iti	236	1	59	59	0	0	2000	350	2	2	2	-50	-65	-50	-53	-65	-2729	-50	1	2	-71	-50	-62	-63	-71.3420086463078888528	-52.8247979495500956659	-60.2899521871106713888	-64.7821655133075182675
5.0.14.0	win	042419	23:04:49	005	1	game	3	selection	237	1	60	60	0	slot2	349	349	2	1	2	-50	-65	-50	-53	-65	-2776	-47	1	2	-78	-47	-54	-69	-76.5422930511757613203	-50.1602199333760054856	-60.4036161123619024238	-65.1231931555098668696
5.0.14.0	win	042419	23:04:49	005	1	game	3	iti	240	1	60	60	0	0	2000	349	2	1	2	-47	-65	-47	-53	-65	-2776	-47	1	2	-78	-47	-54	-69	-76.5422930511757613203	-50.1602199333760054856	-60.4036161123619024238	-65.1231931555098668696
5.0.14.0	win	042419	23:04:49	005	1	game	3	selection	241	1	61	61	0	slot2	303	303	2	1	2	-47	-65	-47	-53	-65	-2815	-39	1	2	-81	-39	-54	-62	-76.3824229892476438408	-46.0811494207617329266	-55.3529449609233239471	-64.1816466364597744132
5.0.14.0	win	042419	23:04:49	005	1	game	3	iti	244	1	61	61	0	0	2000	303	2	1	2	-39	-65	-39	-53	-65	-2815	-39	1	2	-81	-39	-54	-62	-76.3824229892476438408	-46.0811494207617329266	-55.3529449609233239471	-64.1816466364597744132
5.0.14.0	win	042419	23:04:49	005	1	game	3	selection	245	1	62	62	0	slot2	440	440	2	1	2	-39	-65	-39	-53	-65	-2858	-43	1	2	-69	-43	-49	-63	-69.7694941875165710599	-45.7344917519336604528	-55.2294517970938159124	-63.1301014438084706626
5.0.14.0	win	042419	23:04:49	005	1	game	3	iti	248	1	62	62	0	0	2000	440	2	1	2	-43	-65	-43	-53	-65	-2858	-43	1	2	-69	-43	-49	-63	-69.7694941875165710599	-45.7344917519336604528	-55.2294517970938159124	-63.1301014438084706626
5.0.14.0	win	042419	23:04:49	005	1	game	3	selection	249	1	63	63	0	slot2	432	432	2	1	2	-43	-65	-43	-53	-65	-2906	-48	1	2	-69	-48	-57	-58	-69.7924507231432471599	-48.3955475694623800109	-58.4725433781672165878	-62.7606186210670031755
5.0.14.0	win	042419	23:04:49	005	1	game	3	iti	252	1	63	63	0	0	2000	432	2	1	2	-48	-65	-48	-53	-65	-2906	-48	1	2	-69	-48	-57	-58	-69.7924507231432471599	-48.3955475694623800109	-58.4725433781672165878	-62.7606186210670031755
5.0.14.0	win	042419	23:04:49	005	1	game	3	selection	253	1	64	64	0	slot2	352	352	2	1	2	-48	-65	-48	-53	-65	-2959	-53	1	2	-74	-53	-54	-68	-72.6471950650335998034	-47.243276530699212401	-57.8734298699081008976	-61.0109954598455885844
5.0.14.0	win	042419	23:04:49	005	1	game	3	iti	256	1	64	64	0	0	2000	352	2	1	2	-53	-65	-53	-53	-65	-2959	-53	1	2	-74	-53	-54	-68	-72.6471950650335998034	-47.243276530699212401	-57.8734298699081008976	-61.0109954598455885844
5.0.14.0	win	042419	23:04:49	005	1	game	3	selection	257	1	65	65	0	slot3	498	498	3	2	2	-53	-65	-53	-53	-65	-3014	-55	2	2	-67	-47	-55	-59	-70.0481489546936444412	-48.3159807841558190944	-58.7049829014217507961	-58.2095954381997131577
5.0.14.0	win	042419	23:04:49	005	1	game	3	iti	260	1	65	65	0	0	2000	498	3	2	2	-53	-65	-53	-55	-65	-3014	-55	2	2	-67	-47	-55	-59	-70.0481489546936444412	-48.3159807841558190944	-58.7049829014217507961	-58.2095954381997131577
5.0.14.0	win	042419	23:04:49	005	1	game	3	selection	261	1	66	66	0	slot2	313	313	2	1	2	-53	-65	-53	-55	-65	-3063	-49	1	2	-74	-49	-61	-52	-78.1428667371652068141	-44.6973648950912405553	-58.4207371474997430028	-52.0884040745686860419
5.0.14.0	win	042419	23:04:49	005	1	game	3	iti	264	1	66	66	0	0	2000	313	2	1	2	-49	-65	-49	-55	-65	-3063	-49	1	2	-74	-49	-61	-52	-78.1428667371652068141	-44.6973648950912405553	-58.4207371474997430028	-52.0884040745686860419
5.0.14.0	win	042419	23:04:49	005	1	game	3	selection	265	1	67	67	0	slot2	868	868	2	1	2	-49	-65	-49	-55	-65	-3116	-53	2	4	-75	-53	-62	-47	-72.0095490357390701774	-43.1574414543641111663	-64.1473343622855480817	-47.2160795319828991978
5.0.14.0	win	042419	23:04:49	005	1	game	3	iti	268	1	67	67	0	0	2000	868	2	1	2	-53	-65	-53	-55	-65	-3116	-53	2	4	-75	-53	-62	-47	-72.0095490357390701774	-43.1574414543641111663	-64.1473343622855480817	-47.2160795319828991978
5.0.14.0	win	042419	23:04:49	005	1	game	3	selection	269	1	68	68	0	slot2	436	436	2	1	2	-53	-65	-53	-55	-65	-3161	-45	1	2	-70	-45	-71	-50	-70.2827935241150072443	-44.2234212300297784282	-65.0175336515447526153	-46.1502008788880146994
5.0.14.0	win	042419	23:04:49	005	1	game	3	iti	272	1	68	68	0	0	2000	436	2	1	2	-45	-65	-45	-55	-65	-3161	-45	1	2	-70	-45	-71	-50	-70.2827935241150072443	-44.2234212300297784282	-65.0175336515447526153	-46.1502008788880146994
5.0.14.0	win	042419	23:04:49	005	1	game	3	selection	273	1	69	69	0	slot2	918	918	2	1	2	-45	-65	-45	-55	-65	-3211	-50	2	4	-68	-50	-73	-43	-69.3556684786880879301	-42.2006705986015191456	-67.7688836448881204433	-44.5476500767250129798
5.0.14.0	win	042419	23:04:49	005	1	game	3	iti	276	1	69	69	0	0	2000	918	2	1	2	-50	-65	-50	-55	-65	-3211	-50	2	4	-68	-50	-73	-43	-69.3556684786880879301	-42.2006705986015191456	-67.7688836448881204433	-44.5476500767250129798
5.0.14.0	win	042419	23:04:49	005	1	game	3	selection	277	1	70	70	0	slot2	273	273	2	1	2	-50	-65	-50	-55	-65	-3264	-53	2	4	-71	-53	-70	-46	-66.478895051776689229	-44.5216674898269744176	-65.3646909338980321991	-46.3328614954368873668
5.0.14.0	win	042419	23:04:49	005	1	game	3	iti	280	1	70	70	0	0	2000	273	2	1	2	-53	-65	-53	-55	-65	-3264	-53	2	4	-71	-53	-70	-46	-66.478895051776689229	-44.5216674898269744176	-65.3646909338980321991	-46.3328614954368873668
5.0.14.0	win	042419	23:04:49	005	1	game	3	selection	281	1	71	71	0	slot2	401	401	2	1	2	-53	-65	-53	-55	-65	-3312	-48	2	4	-66	-48	-71	-44	-68.7153035143029029541	-46.3684342707772856329	-63.4430045407520211143	-48.4085754147170064243
5.0.14.0	win	042419	23:04:49	005	1	game	3	iti	284	1	71	71	0	0	2000	401	2	1	2	-48	-65	-48	-55	-65	-3312	-48	2	4	-66	-48	-71	-44	-68.7153035143029029541	-46.3684342707772856329	-63.4430045407520211143	-48.4085754147170064243
5.0.14.0	win	042419	23:04:49	005	1	game	3	selection	285	1	72	72	0	slot2	482	482	2	1	2	-48	-65	-48	-55	-65	-3359	-47	2	4	-70	-47	-64	-41	-69.5485446452822628771	-48.8500501345786304341	-62.243138703205403317	-45.9896814835477059091
5.0.14.0	win	042419	23:04:49	005	1	game	3	iti	288	1	72	72	0	0	2000	482	2	1	2	-47	-65	-47	-55	-65	-3359	-47	2	4	-70	-47	-64	-41	-69.5485446452822628771	-48.8500501345786304341	-62.243138703205403317	-45.9896814835477059091
5.0.14.0	win	042419	23:04:49	005	1	game	3	selection	289	1	73	73	0	slot2	596	596	2	1	2	-47	-65	-47	-55	-65	-3398	-39	1	2	-67	-39	-70	-55	-69.1958635968688042794	-46.5475716124447558286	-66.787258176584103353	-47.5744446864534182851
5.0.14.0	win	042419	23:04:49	005	1	game	3	iti	292	1	73	73	0	0	2000	596	2	1	2	-39	-65	-39	-55	-65	-3398	-39	1	2	-67	-39	-70	-55	-69.1958635968688042794	-46.5475716124447558286	-66.787258176584103353	-47.5744446864534182851
5.0.14.0	win	042419	23:04:49	005	1	game	3	selection	293	1	74	74	0	slot2	463	463	2	1	2	-39	-65	-39	-55	-65	-3443	-45	1	2	-65	-45	-60	-46	-71.1319404459170954169	-44.5180027561568323335	-64.3515325271669098584	-46.6065127826482807905
5.0.14.0	win	042419	23:04:49	005	1	game	3	iti	296	1	74	74	0	0	2000	463	2	1	2	-45	-65	-45	-55	-65	-3443	-45	1	2	-65	-45	-60	-46	-71.1319404459170954169	-44.5180027561568323335	-64.3515325271669098584	-46.6065127826482807905
5.0.14.0	win	042419	23:04:49	005	1	game	3	selection	297	1	75	75	0	slot2	332	332	2	1	2	-45	-65	-45	-55	-65	-3480	-37	1	2	-74	-37	-67	-44	-70.1677447726065111056	-41.6523611719810986642	-66.7464879663924364195	-44.6171287590497982478
5.0.14.0	win	042419	23:04:49	005	1	game	3	iti	300	1	75	75	0	0	2000	332	2	1	2	-37	-65	-37	-55	-65	-3480	-37	1	2	-74	-37	-67	-44	-70.1677447726065111056	-41.6523611719810986642	-66.7464879663924364195	-44.6171287590497982478
5.0.14.0	win	042419	23:04:49	005	1	game	3	selection	301	1	76	76	0	slot2	721	721	2	1	2	-37	-65	-37	-55	-65	-3514	-34	1	2	-68	-34	-65	-48	-70.8759891198380813648	-40.3110836164250301294	-63.1415455075526779183	-45.9770162146591090391
5.0.14.0	win	042419	23:04:49	005	1	game	3	iti	304	1	76	76	0	0	2000	721	2	1	2	-34	-65	-34	-55	-65	-3514	-34	1	2	-68	-34	-65	-48	-70.8759891198380813648	-40.3110836164250301294	-63.1415455075526779183	-45.9770162146591090391
5.0.14.0	win	042419	23:04:49	005	1	game	3	selection	305	1	77	77	0	slot2	682	682	2	1	2	-34	-65	-34	-55	-65	-3550	-36	1	2	-65	-36	-61	-50	-65.9864372460940131759	-35.1582072118708239827	-65.3780446452009726954	-46.5092139670283657438
5.0.14.0	win	042419	23:04:49	005	1	game	3	iti	308	1	77	77	0	0	2000	682	2	1	2	-36	-65	-36	-55	-65	-3550	-36	1	2	-65	-36	-61	-50	-65.9864372460940131759	-35.1582072118708239827	-65.3780446452009726954	-46.5092139670283657438
5.0.14.0	win	042419	23:04:49	005	1	game	3	selection	309	1	78	78	0	slot2	605	605	2	1	2	-36	-65	-36	-55	-65	-3589	-39	1	2	-67	-39	-63	-48	-65.2061445734639306693	-36.7477958218165952076	-65.9784690514235876435	-50.5422780300424889788
5.0.14.0	win	042419	23:04:49	005	1	game	3	iti	312	1	78	78	0	0	2000	605	2	1	2	-39	-65	-39	-55	-65	-3589	-39	1	2	-67	-39	-63	-48	-65.2061445734639306693	-36.7477958218165952076	-65.9784690514235876435	-50.5422780300424889788
5.0.14.0	win	042419	23:04:49	005	1	game	3	selection	313	1	79	79	0	slot2	723	723	2	1	2	-39	-65	-39	-55	-65	-3622	-33	1	2	-69	-33	-62	-53	-66.0130217197957023245	-38.5023844472398621974	-63.3020578394309794135	-55.2799437579559764799
5.0.14.0	win	042419	23:04:49	005	1	game	3	iti	316	1	79	79	0	0	2000	723	2	1	2	-33	-65	-33	-55	-65	-3622	-33	1	2	-69	-33	-62	-53	-66.0130217197957023245	-38.5023844472398621974	-63.3020578394309794135	-55.2799437579559764799
5.0.14.0	win	042419	23:04:49	005	1	game	3	selection	317	1	80	80	0	slot2	422	422	2	1	2	-33	-65	-33	-55	-65	-3662	-40	1	2	-66	-40	-68	-62	-66.0421666680527863491	-39.1028505261811645255	-67.7281640568074010389	-54.4737470234968910177
5.0.14.0	win	042419	23:04:49	005	1	game	3	iti	320	1	80	80	0	0	2000	422	2	1	2	-40	-65	-40	-55	-65	-3662	-40	1	2	-66	-40	-68	-62	-66.0421666680527863491	-39.1028505261811645255	-67.7281640568074010389	-54.4737470234968910177
5.0.14.0	win	042419	23:04:49	005	1	game	3	selection	321	1	81	81	0	slot2	570	570	2	1	2	-40	-65	-40	-55	-65	-3710	-48	1	2	-65	-48	-58	-57	-64.7943755262207901069	-45.1008733603471796414	-64.8531373022468926592	-55.5576956472951763999
5.0.14.0	win	042419	23:04:49	005	1	game	3	iti	324	1	81	81	0	0	2000	570	2	1	2	-48	-65	-48	-55	-65	-3710	-48	1	2	-65	-48	-58	-57	-64.7943755262207901069	-45.1008733603471796414	-64.8531373022468926592	-55.5576956472951763999
5.0.14.0	win	042419	23:04:49	005	1	game	3	selection	325	1	82	82	0	slot2	408	408	2	1	2	-48	-65	-48	-55	-65	-3758	-48	1	2	-64	-48	-60	-50	-67.1135253486395271239	-47.3030265522962594105	-64.137632479817440867	-54.3424077917998502585
5.0.14.0	win	042419	23:04:49	005	1	game	3	iti	328	1	82	82	0	0	2000	408	2	1	2	-48	-65	-48	-55	-65	-3758	-48	1	2	-64	-48	-60	-50	-67.1135253486395271239	-47.3030265522962594105	-64.137632479817440867	-54.3424077917998502585
5.0.14.0	win	042419	23:04:49	005	1	game	3	selection	329	1	83	83	0	slot2	428	428	2	1	2	-48	-65	-48	-55	-65	-3799	-41	1	2	-60	-41	-62	-65	-65.150478638552300481	-42.1010547456634469654	-58.8078894813656702922	-57.1546507941615118398
5.0.14.0	win	042419	23:04:49	005	1	game	3	iti	332	1	83	83	0	0	2000	428	2	1	2	-41	-65	-41	-55	-65	-3799	-41	1	2	-60	-41	-62	-65	-65.150478638552300481	-42.1010547456634469654	-58.8078894813656702922	-57.1546507941615118398
5.0.14.0	win	042419	23:04:49	005	1	game	3	selection	333	1	84	84	0	slot2	592	592	2	1	2	-41	-65	-41	-55	-65	-3842	-43	1	2	-65	-43	-63	-61	-64.7704775704754496246	-41.7484433412782394157	-62.4480892434629879517	-61.7460139303071073869
5.0.14.0	win	042419	23:04:49	005	1	game	3	iti	336	1	84	84	0	0	2000	592	2	1	2	-43	-65	-43	-55	-65	-3842	-43	1	2	-65	-43	-63	-61	-64.7704775704754496246	-41.7484433412782394157	-62.4480892434629879517	-61.7460139303071073869
5.0.14.0	win	042419	23:04:49	005	1	game	3	selection	337	1	85	85	0	slot2	314	314	2	1	2	-43	-65	-43	-55	-65	-3887	-45	1	2	-71	-45	-66	-65	-61.054880025801637089	-39.6397906651819766921	-64.6295880739534567283	-67.6116875534611097009
5.0.14.0	win	042419	23:04:49	005	1	game	3	iti	340	1	85	85	0	0	2000	314	2	1	2	-45	-65	-45	-55	-65	-3887	-45	1	2	-71	-45	-66	-65	-61.054880025801637089	-39.6397906651819766921	-64.6295880739534567283	-67.6116875534611097009
5.0.14.0	win	042419	23:04:49	005	1	game	3	selection	341	1	86	86	0	slot2	489	489	2	1	2	-45	-65	-45	-55	-65	-3922	-35	1	2	-66	-35	-60	-59	-63.2673529347556211633	-36.6117584665282009837	-61.0513627417271109721	-62.1220964189079651874
5.0.14.0	win	042419	23:04:49	005	1	game	3	iti	344	1	86	86	0	0	2000	489	2	1	2	-35	-65	-35	-55	-65	-3922	-35	1	2	-66	-35	-60	-59	-63.2673529347556211633	-36.6117584665282009837	-61.0513627417271109721	-62.1220964189079651874
5.0.14.0	win	042419	23:04:49	005	1	game	3	selection	345	1	87	87	0	slot2	380	380	2	1	2	-35	-65	-35	-55	-65	-3955	-33	1	2	-66	-33	-59	-58	-66.0315763394489749771	-38.0386782289191813788	-59.6412143887729158109	-60.9980906155568121108
5.0.14.0	win	042419	23:04:49	005	1	game	3	iti	348	1	87	87	0	0	2000	380	2	1	2	-33	-65	-33	-55	-65	-3955	-33	1	2	-66	-33	-59	-58	-66.0315763394489749771	-38.0386782289191813788	-59.6412143887729158109	-60.9980906155568121108
5.0.14.0	win	042419	23:04:49	005	1	game	3	selection	349	1	88	88	0	slot2	470	470	2	1	2	-33	-65	-33	-55	-65	-3994	-39	1	2	-71	-39	-67	-49	-68.7845319533878978291	-35.4190724977627553471	-58.8623263055447480951	-56.3139981238480729075
5.0.14.0	win	042419	23:04:49	005	1	game	3	iti	352	1	88	88	0	0	2000	470	2	1	2	-39	-65	-39	-55	-65	-3994	-39	1	2	-71	-39	-67	-49	-68.7845319533878978291	-35.4190724977627553471	-58.8623263055447480951	-56.3139981238480729075
5.0.14.0	win	042419	23:04:49	005	1	game	3	selection	353	1	89	89	0	slot2	453	453	2	1	2	-39	-65	-39	-55	-65	-4028	-34	1	2	-69	-34	-60	-68	-69.945684620541072718	-36.6516108048177926548	-57.8834082802741249907	-60.5602560745487323857
5.0.14.0	win	042419	23:04:49	005	1	game	3	iti	356	1	89	89	0	0	2000	453	2	1	2	-34	-65	-34	-55	-65	-4028	-34	1	2	-69	-34	-60	-68	-69.945684620541072718	-36.6516108048177926548	-57.8834082802741249907	-60.5602560745487323857
5.0.14.0	win	042419	23:04:49	005	1	game	3	selection	357	1	90	90	0	slot2	725	725	2	1	2	-34	-65	-34	-55	-65	-4069	-41	1	2	-78	-41	-73	-66	-75.2281745799890586568	-41.2189337043136703187	-62.6911500532949190756	-63.3333776609133209945
5.0.14.0	win	042419	23:04:49	005	1	game	3	iti	360	1	90	90	0	0	2000	725	2	1	2	-41	-65	-41	-55	-65	-4069	-41	1	2	-78	-41	-73	-66	-75.2281745799890586568	-41.2189337043136703187	-62.6911500532949190756	-63.3333776609133209945
5.0.14.0	win	042419	23:04:49	005	1	game	3	selection	361	1	91	91	0	slot2	383	383	2	1	2	-41	-65	-41	-55	-65	-4113	-44	1	2	-72	-44	-68	-65	-74.5803016499883142387	-40.0652673191153709809	-63.2507291374431659392	-64.4755609116471362086
5.0.14.0	win	042419	23:04:49	005	1	game	3	iti	364	1	91	91	0	0	2000	383	2	1	2	-44	-65	-44	-55	-65	-4113	-44	1	2	-72	-44	-68	-65	-74.5803016499883142387	-40.0652673191153709809	-63.2507291374431659392	-64.4755609116471362086
5.0.14.0	win	042419	23:04:49	005	1	game	3	selection	365	1	92	92	0	slot2	616	616	2	1	2	-44	-65	-44	-55	-65	-4166	-53	1	2	-61	-53	-63	-57	-69.4890249102824952843	-43.8919581590584542141	-67.0937811223674600569	-62.8261074203109401992
5.0.14.0	win	042419	23:04:49	005	1	game	3	iti	368	1	92	92	0	0	2000	616	2	1	2	-53	-65	-53	-55	-65	-4166	-53	1	2	-61	-53	-63	-57	-69.4890249102824952843	-43.8919581590584542141	-67.0937811223674600569	-62.8261074203109401992
5.0.14.0	win	042419	23:04:49	005	1	game	3	selection	369	1	93	93	0	slot2	384	384	2	1	2	-53	-65	-53	-55	-65	-4209	-43	1	2	-75	-43	-61	-58	-73.8528397935495348747	-43.7077035309784349693	-68.0507075588707976976	-64.3503107180681865884
5.0.14.0	win	042419	23:04:49	005	1	game	3	iti	372	1	93	93	0	0	2000	384	2	1	2	-43	-65	-43	-55	-65	-4209	-43	1	2	-75	-43	-61	-58	-73.8528397935495348747	-43.7077035309784349693	-68.0507075588707976976	-64.3503107180681865884
5.0.14.0	win	042419	23:04:49	005	1	game	3	selection	373	1	94	94	0	slot2	501	501	2	1	2	-43	-65	-43	-55	-65	-4254	-45	1	2	-65	-45	-59	-68	-69.3756302099733233035	-42.424696440576028067	-66.3422754566448418245	-64.7455359453418282101
5.0.14.0	win	042419	23:04:49	005	1	game	3	iti	376	1	94	94	0	0	2000	501	2	1	2	-45	-65	-45	-55	-65	-4254	-45	1	2	-65	-45	-59	-68	-69.3756302099733233035	-42.424696440576028067	-66.3422754566448418245	-64.7455359453418282101
5.0.14.0	win	042419	23:04:49	005	1	game	3	selection	377	1	95	95	0	slot2	538	538	2	1	2	-45	-65	-45	-55	-65	-4296	-42	1	2	-72	-42	-66	-65	-68.0379264496322804234	-43.0001645180365201782	-67.2832804162621584965	-64.5261746881408129184
5.0.14.0	win	042419	23:04:49	005	1	game	3	iti	380	1	95	95	0	0	2000	538	2	1	2	-42	-65	-42	-55	-65	-4296	-42	1	2	-72	-42	-66	-65	-68.0379264496322804234	-43.0001645180365201782	-67.2832804162621584965	-64.5261746881408129184
5.0.14.0	win	042419	23:04:49	005	1	game	3	selection	381	1	96	96	0	slot3	622	622	3	2	2	-42	-65	-42	-55	-65	-4363	-67	2	2	-74	-39	-67	-56	-71.6035634681873318641	-37.1610969769903363158	-64.334523669744683616	-60.3761002214610869032
5.0.14.0	win	042419	23:04:49	005	1	game	3	iti	384	1	96	96	0	0	2000	622	3	2	2	-42	-65	-42	-67	-65	-4363	-67	2	2	-74	-39	-67	-56	-71.6035634681873318641	-37.1610969769903363158	-64.334523669744683616	-60.3761002214610869032
5.0.14.0	win	042419	23:04:49	005	1	game	3	selection	385	1	97	97	0	slot4	426	426	4	2	2	-42	-65	-42	-67	-65	-4422	-59	2	2	-74	-33	-63	-59	-71.4178890439781071109	-33.9552864743286590965	-67.1939281916259290028	-62.5245805380225405656
5.0.14.0	win	042419	23:04:49	005	1	game	3	iti	388	1	97	97	0	0	2000	426	4	2	2	-42	-65	-42	-67	-59	-4422	-59	2	2	-74	-33	-63	-59	-71.4178890439781071109	-33.9552864743286590965	-67.1939281916259290028	-62.5245805380225405656
5.0.14.0	win	042419	23:04:49	005	1	game	3	selection	389	1	98	98	0	slot1	440	440	1	2	2	-42	-65	-42	-67	-59	-4487	-65	2	2	-65	-35	-71	-51	-68.8538514544255235705	-34.6735109863286155019	-68.3239045890259433236	-55.8659573992063656078
5.0.14.0	win	042419	23:04:49	005	1	game	3	iti	392	1	98	98	0	0	2000	440	1	2	2	-42	-65	-42	-67	-59	-4487	-65	2	2	-65	-35	-71	-51	-68.8538514544255235705	-34.6735109863286155019	-68.3239045890259433236	-55.8659573992063656078
5.0.14.0	win	042419	23:04:49	005	1	game	3	selection	393	1	99	99	0	slot2	271	271	2	1	2	-42	-65	-42	-67	-59	-4524	-37	1	2	-73	-37	-66	-64	-70.8965629562974442024	-37.1478312366491181251	-70.7234958193621139344	-57.2325247459372548064
5.0.14.0	win	042419	23:04:49	005	1	game	3	iti	396	1	99	99	0	0	2000	271	2	1	2	-37	-65	-37	-67	-59	-4524	-37	1	2	-73	-37	-66	-64	-70.8965629562974442024	-37.1478312366491181251	-70.7234958193621139344	-57.2325247459372548064
5.0.14.0	win	042419	23:04:49	005	1	game	3	selection	397	1	100	100	0	slot2	327	327	2	1	2	-37	-65	-37	-67	-59	-4558	-34	1	2	-82	-34	-77	-54	-76.0222892222724340172	-37.900618837663330396	-73.3857048545997656674	-57.9146776030709560246
5.0.14.0	win	042419	23:04:49	005	1	game	3	iti	400	1	100	100	0	0	2000	327	2	1	2	-34	-65	-34	-67	-59	-4558	-34	1	2	-82	-34	-77	-54	-76.0222892222724340172	-37.900618837663330396	-73.3857048545997656674	-57.9146776030709560246
5.0.14.0	win	042419	23:04:49	005	1	game	3	selection	401	1	101	101	0	slot2	295	295	2	1	2	-34	-65	-34	-67	-59	-4594	-36	1	2	-74	-36	-72	-53	-70.1288367172367088642	-35.4892913220325922907	-77.4937284332494158434	-57.8616435307837662094
5.0.14.0	win	042419	23:04:49	005	1	game	3	iti	404	1	101	101	0	0	2000	295	2	1	2	-36	-65	-36	-67	-59	-4594	-36	1	2	-74	-36	-72	-53	-70.1288367172367088642	-35.4892913220325922907	-77.4937284332494158434	-57.8616435307837662094
5.0.14.0	win	042419	23:04:49	005	1	game	3	selection	405	1	102	102	0	slot2	447	447	2	1	2	-36	-65	-36	-67	-59	-4635	-41	1	2	-76	-41	-69	-52	-71.9370652089861266631	-34.9282428203054280402	-78.84345217846929188	-53.6401177650866145541
5.0.14.0	win	042419	23:04:49	005	1	game	3	iti	408	1	102	102	0	0	2000	447	2	1	2	-41	-65	-41	-67	-59	-4635	-41	1	2	-76	-41	-69	-52	-71.9370652089861266631	-34.9282428203054280402	-78.84345217846929188	-53.6401177650866145541
5.0.14.0	win	042419	23:04:49	005	1	game	3	selection	409	1	103	103	0	slot2	322	322	2	1	2	-41	-65	-41	-67	-59	-4670	-35	1	2	-71	-35	-78	-50	-70.1209708196334133845	-34.8522112573158509008	-75.6840587543293850104	-50.6747710527926287227
5.0.14.0	win	042419	23:04:49	005	1	game	3	iti	412	1	103	103	0	0	2000	322	2	1	2	-35	-65	-35	-67	-59	-4670	-35	1	2	-71	-35	-78	-50	-70.1209708196334133845	-34.8522112573158509008	-75.6840587543293850104	-50.6747710527926287227
5.0.14.0	win	042419	23:04:49	005	1	game	3	selection	413	1	104	104	0	slot2	400	400	2	1	2	-35	-65	-35	-67	-59	-4713	-43	1	2	-64	-43	-82	-50	-67.5121614811602768214	-37.2218462624696186936	-74.964781744481200576	-52.981862353803180099
5.0.14.0	win	042419	23:04:49	005	1	game	3	iti	416	1	104	104	0	0	2000	400	2	1	2	-43	-65	-43	-67	-59	-4713	-43	1	2	-64	-43	-82	-50	-67.5121614811602768214	-37.2218462624696186936	-74.964781744481200576	-52.981862353803180099
5.0.14.0	win	042419	23:04:49	005	1	game	3	selection	417	1	105	105	0	slot2	309	309	2	1	2	-43	-65	-43	-67	-59	-4756	-43	1	2	-68	-43	-75	-51	-64.5532112592266997808	-40.275346218651591812	-73.332704231674000539	-50.0450910558339288059
5.0.14.0	win	042419	23:04:49	005	1	game	3	iti	420	1	105	105	0	0	2000	309	2	1	2	-43	-65	-43	-67	-59	-4756	-43	1	2	-68	-43	-75	-51	-64.5532112592266997808	-40.275346218651591812	-73.332704231674000539	-50.0450910558339288059
5.0.14.0	win	042419	23:04:49	005	1	game	3	selection	421	1	106	106	0	slot2	313	313	2	1	2	-43	-65	-43	-67	-59	-4798	-42	1	2	-58	-42	-70	-51	-63.9952984811285503497	-41.9282132859689440352	-69.9916777266287226666	-48.2179416914750547107
5.0.14.0	win	042419	23:04:49	005	1	game	3	iti	424	1	106	106	0	0	2000	313	2	1	2	-42	-65	-42	-67	-59	-4798	-42	1	2	-58	-42	-70	-51	-63.9952984811285503497	-41.9282132859689440352	-69.9916777266287226666	-48.2179416914750547107
5.0.14.0	win	042419	23:04:49	005	1	game	3	selection	425	1	107	107	0	slot2	550	550	2	1	2	-42	-65	-42	-67	-59	-4841	-43	2	4	-66	-43	-67	-39	-65.1272752326471078277	-43.5928039764794021949	-66.2008803256679954075	-42.631570074176345031
5.0.14.0	win	042419	23:04:49	005	1	game	3	iti	428	1	107	107	0	0	2000	550	2	1	2	-43	-65	-43	-67	-59	-4841	-43	2	4	-66	-43	-67	-39	-65.1272752326471078277	-43.5928039764794021949	-66.2008803256679954075	-42.631570074176345031
5.0.14.0	win	042419	23:04:49	005	1	game	3	selection	429	1	108	108	0	slot2	388	388	2	1	2	-43	-65	-43	-67	-59	-4895	-54	2	4	-66	-54	-65	-38	-66.1723012663182146298	-50.2265119884064574762	-64.1741971195924492122	-41.1796780628678646963
5.0.14.0	win	042419	23:04:49	005	1	game	3	iti	432	1	108	108	0	0	2000	388	2	1	2	-54	-65	-54	-67	-59	-4895	-54	2	4	-66	-54	-65	-38	-66.1723012663182146298	-50.2265119884064574762	-64.1741971195924492122	-41.1796780628678646963
5.0.14.0	win	042419	23:04:49	005	1	game	3	selection	433	1	109	109	0	slot2	420	420	2	1	2	-54	-65	-54	-67	-59	-4943	-48	2	4	-71	-48	-60	-47	-67.3375582148747469091	-49.8925277407948186692	-60.9086559111109124842	-41.2608245702362026464
5.0.14.0	win	042419	23:04:49	005	1	game	3	iti	436	1	109	109	0	0	2000	420	2	1	2	-48	-65	-48	-67	-59	-4943	-48	2	4	-71	-48	-60	-47	-67.3375582148747469091	-49.8925277407948186692	-60.9086559111109124842	-41.2608245702362026464
5.0.14.0	win	042419	23:04:49	005	1	game	3	selection	437	1	110	110	0	slot2	450	450	2	1	2	-48	-65	-48	-67	-59	-4991	-48	2	4	-63	-48	-66	-40	-66.695690869814328039	-49.9997648845375834981	-62.4800731352203726487	-42.4988878093756454746
5.0.14.0	win	042419	23:04:49	005	1	game	3	iti	440	1	110	110	0	0	2000	450	2	1	2	-48	-65	-48	-67	-59	-4991	-48	2	4	-63	-48	-66	-40	-66.695690869814328039	-49.9997648845375834981	-62.4800731352203726487	-42.4988878093756454746
5.0.14.0	win	042419	23:04:49	005	1	game	3	selection	441	1	111	111	0	slot2	399	399	2	1	2	-48	-65	-48	-67	-59	-5046	-55	2	4	-72	-55	-60	-43	-67.4943933352861904496	-53.4153644183246427701	-63.6214243548799487371	-46.0347799928009493442
5.0.14.0	win	042419	23:04:49	005	1	game	3	iti	444	1	111	111	0	0	2000	399	2	1	2	-55	-65	-55	-67	-59	-5046	-55	2	4	-72	-55	-60	-43	-67.4943933352861904496	-53.4153644183246427701	-63.6214243548799487371	-46.0347799928009493442
5.0.14.0	win	042419	23:04:49	005	1	game	3	selection	445	1	112	112	0	slot2	409	409	2	1	2	-55	-65	-55	-67	-59	-5094	-48	1	2	-69	-48	-56	-50	-70.4409103550547541772	-50.5385920861467212717	-60.7512627000233891295	-46.887717140953782291
5.0.14.0	win	042419	23:04:49	005	1	game	3	iti	448	1	112	112	0	0	2000	409	2	1	2	-48	-65	-48	-67	-59	-5094	-48	1	2	-69	-48	-56	-50	-70.4409103550547541772	-50.5385920861467212717	-60.7512627000233891295	-46.887717140953782291
5.0.14.0	win	042419	23:04:49	005	1	game	3	selection	449	1	113	113	0	slot2	380	380	2	1	2	-48	-65	-48	-67	-59	-5140	-46	2	4	-70	-46	-61	-40	-70.7994544451485836589	-48.7279160549224243937	-63.304971127836488165	-46.1818184211782778448
5.0.14.0	win	042419	23:04:49	005	1	game	3	iti	452	1	113	113	0	0	2000	380	2	1	2	-46	-65	-46	-67	-59	-5140	-46	2	4	-70	-46	-61	-40	-70.7994544451485836589	-48.7279160549224243937	-63.304971127836488165	-46.1818184211782778448
5.0.14.0	win	042419	23:04:49	005	1	game	3	selection	453	1	114	114	0	slot2	413	413	2	1	2	-46	-65	-46	-67	-59	-5184	-44	1	2	-73	-44	-65	-48	-73.9332963085177823359	-45.8301838757544786063	-60.5436493985467976131	-44.6915537562521194559
5.0.14.0	win	042419	23:04:49	005	1	game	3	iti	456	1	114	114	0	0	2000	413	2	1	2	-44	-65	-44	-67	-59	-5184	-44	1	2	-73	-44	-65	-48	-73.9332963085177823359	-45.8301838757544786063	-60.5436493985467976131	-44.6915537562521194559
5.0.14.0	win	042419	23:04:49	005	1	game	3	selection	457	1	115	115	0	slot2	277	277	2	1	2	-44	-65	-44	-67	-59	-5239	-55	2	4	-74	-55	-52	-42	-72.4306096057245554221	-49.0902460054941727208	-54.9630679011648339838	-42.8460178088300978061
5.0.14.0	win	042419	23:04:49	005	1	game	3	iti	460	1	115	115	0	0	2000	277	2	1	2	-55	-65	-55	-67	-59	-5239	-55	2	4	-74	-55	-52	-42	-72.4306096057245554221	-49.0902460054941727208	-54.9630679011648339838	-42.8460178088300978061
5.0.14.0	win	042419	23:04:49	005	1	game	3	selection	461	1	116	116	0	slot2	355	355	2	1	2	-55	-65	-55	-67	-59	-5293	-54	2	4	-65	-54	-56	-43	-70.9266760816140049428	-47.1745103676402095516	-54.6457136513417012225	-41.7929413805667451243
5.0.14.0	win	042419	23:04:49	005	1	game	3	iti	464	1	116	116	0	0	2000	355	2	1	2	-54	-65	-54	-67	-59	-5293	-54	2	4	-65	-54	-56	-43	-70.9266760816140049428	-47.1745103676402095516	-54.6457136513417012225	-41.7929413805667451243
5.0.14.0	win	042419	23:04:49	005	1	game	3	selection	465	1	117	117	0	slot2	383	383	2	1	2	-54	-65	-54	-67	-59	-5340	-47	2	4	-74	-47	-54	-45	-67.6657702901375444071	-47.1781282185708121801	-54.0319716615544578531	-44.3732170608037037596
5.0.14.0	win	042419	23:04:49	005	1	game	3	iti	468	1	117	117	0	0	2000	383	2	1	2	-47	-65	-47	-67	-59	-5340	-47	2	4	-74	-47	-54	-45	-67.6657702901375444071	-47.1781282185708121801	-54.0319716615544578531	-44.3732170608037037596
5.0.14.0	win	042419	23:04:49	005	1	game	3	selection	469	1	118	118	0	slot2	420	420	2	1	2	-47	-65	-47	-67	-59	-5385	-45	2	4	-68	-45	-53	-41	-68.3507495572981440546	-45.0612264536961788508	-52.283362997517713211	-42.9536173228887250275
5.0.14.0	win	042419	23:04:49	005	1	game	3	iti	472	1	118	118	0	0	2000	420	2	1	2	-45	-65	-45	-67	-59	-5385	-45	2	4	-68	-45	-53	-41	-68.3507495572981440546	-45.0612264536961788508	-52.283362997517713211	-42.9536173228887250275
5.0.14.0	win	042419	23:04:49	005	1	game	3	selection	473	1	119	119	0	slot3	329	329	3	2	2	-45	-65	-45	-67	-59	-5440	-55	2	4	-65	-41	-55	-37	-66.4200854425636606493	-44.7720344961360368075	-56.0503658308707457536	-43.6463054341544207659
5.0.14.0	win	042419	23:04:49	005	1	game	3	iti	476	1	119	119	0	0	2000	329	3	2	2	-45	-65	-45	-55	-59	-5440	-55	2	4	-65	-41	-55	-37	-66.4200854425636606493	-44.7720344961360368075	-56.0503658308707457536	-43.6463054341544207659
5.0.14.0	win	042419	23:04:49	005	1	game	3	selection	477	1	120	120	0	slot2	357	357	2	1	2	-45	-65	-45	-55	-59	-5488	-48	2	4	-61	-48	-47	-46	-65.9832969712234245208	-51.1235340191530482912	-47.6615304648304061175	-44.2015751918417123534
5.0.14.0	win	042419	23:04:49	005	1	game	3	iti	480	1	120	120	0	0	2000	357	2	1	2	-48	-65	-48	-55	-59	-5488	-48	2	4	-61	-48	-47	-46	-65.9832969712234245208	-51.1235340191530482912	-47.6615304648304061175	-44.2015751918417123534
5.0.14.0	win	042419	23:04:49	005	1	game	3	selection	481	1	121	121	0	slot2	335	335	2	1	2	-48	-65	-48	-55	-59	-5541	-53	2	4	-63	-53	-55	-45	-66.2415854212262189549	-50.1953063096793172804	-50.0547793890679955098	-46.2567554318053097973
5.0.14.0	win	042419	23:04:49	005	1	game	3	iti	484	1	121	121	0	0	2000	335	2	1	2	-53	-65	-53	-55	-59	-5541	-53	2	4	-63	-53	-55	-45	-66.2415854212262189549	-50.1953063096793172804	-50.0547793890679955098	-46.2567554318053097973
5.0.14.0	win	042419	23:04:49	005	1	game	3	selection	485	1	122	122	0	slot2	430	430	2	1	2	-53	-65	-53	-55	-59	-5592	-51	2	4	-77	-51	-56	-48	-67.8791211648639887244	-53.9320959431093172043	-54.2636438358049417729	-49.9950756229494785998
5.0.14.0	win	042419	23:04:49	005	1	game	3	iti	488	1	122	122	0	0	2000	430	2	1	2	-51	-65	-51	-55	-59	-5592	-51	2	4	-77	-51	-56	-48	-67.8791211648639887244	-53.9320959431093172043	-54.2636438358049417729	-49.9950756229494785998
5.0.14.0	win	042419	23:04:49	005	1	game	3	selection	489	1	123	123	0	slot2	325	325	2	1	2	-51	-65	-51	-55	-59	-5650	-58	2	3	-77	-58	-51	-52	-70.9211770143604809391	-56.4755096352293506357	-50.5881479631921919804	-51.5087738093964730979
5.0.14.0	win	042419	23:04:49	005	1	game	3	iti	492	1	123	123	0	0	2000	325	2	1	3	-55	-65	-58	-55	-59	-5650	-58	2	3	-77	-58	-51	-52	-70.9211770143604809391	-56.4755096352293506357	-50.5881479631921919804	-51.5087738093964730979
5.0.14.0	win	042419	23:04:49	005	1	game	3	selection	493	1	124	124	0	slot2	317	317	2	2	3	-55	-65	-58	-55	-59	-5705	-55	2	3	-61	-55	-44	-49	-64.6198266427484639962	-56.0856865745761581366	-48.3896133988959533667	-55.7907738555375729561
5.0.14.0	win	042419	23:04:49	005	1	game	3	iti	496	1	124	124	0	0	2000	317	2	2	2	-55	-65	-55	-55	-59	-5705	-55	2	3	-61	-55	-44	-49	-64.6198266427484639962	-56.0856865745761581366	-48.3896133988959533667	-55.7907738555375729561
5.0.14.0	win	042419	23:04:49	005	1	game	3	selection	497	1	125	125	0	slot2	336	336	2	1	2	-55	-65	-55	-55	-59	-5753	-48	1	2	-66	-48	-56	-64	-66.0364774737640658486	-52.669041217298179447	-50.7004320670947024041	-56.8174652508639042026
5.0.14.0	win	042419	23:04:49	005	1	game	3	iti	500	1	125	125	0	0	2000	336	2	1	2	-48	-65	-48	-55	-59	-5753	-48	1	2	-66	-48	-56	-64	-66.0364774737640658486	-52.669041217298179447	-50.7004320670947024041	-56.8174652508639042026
5.0.14.0	win	042419	23:04:49	005	1	game	3	selection	501	1	126	126	0	slot2	486	486	2	1	2	-48	-65	-48	-55	-59	-5810	-57	2	3	-65	-57	-47	-51	-62.944060387132971357	-56.8829009302989234698	-51.0586426971825559917	-56.3212475362623123942
5.0.14.0	win	042419	23:04:49	005	1	game	3	iti	504	1	126	126	0	0	2000	486	2	1	3	-55	-65	-57	-55	-59	-5810	-57	2	3	-65	-57	-47	-51	-62.944060387132971357	-56.8829009302989234698	-51.0586426971825559917	-56.3212475362623123942
5.0.14.0	win	042419	23:04:49	005	1	game	3	selection	505	1	127	127	0	slot3	277	277	3	1	3	-55	-65	-57	-55	-59	-5861	-51	1	3	-60	-53	-51	-59	-63.617598815293433745	-52.9982363030441590013	-49.926639635244704607	-54.1313408775341429191
5.0.14.0	win	042419	23:04:49	005	1	game	3	iti	508	1	127	127	0	0	2000	277	3	1	3	-51	-65	-57	-51	-59	-5861	-51	1	3	-60	-53	-51	-59	-63.617598815293433745	-52.9982363030441590013	-49.926639635244704607	-54.1313408775341429191
5.0.14.0	win	042419	23:04:49	005	1	game	3	selection	509	1	128	128	0	slot3	371	371	3	1	3	-51	-65	-57	-51	-59	-5920	-59	2	2	-58	-51	-59	-60	-61.0209532358795669893	-52.6500153186431845143	-52.8537039787261448964	-53.9108429881848536525
5.0.14.0	win	042419	23:04:49	005	1	game	3	iti	512	1	128	128	0	0	2000	371	3	1	2	-57	-65	-57	-59	-59	-5920	-59	2	2	-58	-51	-59	-60	-61.0209532358795669893	-52.6500153186431845143	-52.8537039787261448964	-53.9108429881848536525
5.0.14.0	win	042419	23:04:49	005	1	game	3	selection	513	1	129	129	0	slot4	691	691	4	2	2	-57	-65	-57	-59	-59	-5978	-58	2	2	-63	-52	-54	-58	-60.5751497789567707741	-53.8601566566833014349	-50.6014564343727357709	-53.3426700057816916001
5.0.14.0	win	042419	23:04:49	005	1	game	3	iti	516	1	129	129	0	0	2000	691	4	2	2	-57	-65	-57	-59	-58	-5978	-58	2	2	-63	-52	-54	-58	-60.5751497789567707741	-53.8601566566833014349	-50.6014564343727357709	-53.3426700057816916001
5.0.14.0	win	042419	23:04:49	005	1	game	3	selection	517	1	130	130	0	slot2	315	315	2	1	2	-57	-65	-57	-59	-58	-6027	-49	2	4	-58	-49	-44	-39	-63.7685620479066059829	-50.2796029261395247545	-44.0105061808530138023	-51.5611488236642117045
5.0.14.0	win	042419	23:04:49	005	1	game	3	iti	520	1	130	130	0	0	2000	315	2	1	2	-49	-65	-49	-59	-58	-6027	-49	2	4	-58	-49	-44	-39	-63.7685620479066059829	-50.2796029261395247545	-44.0105061808530138023	-51.5611488236642117045
5.0.14.0	win	042419	23:04:49	005	1	game	3	selection	521	1	131	131	0	slot2	387	387	2	1	2	-49	-65	-49	-59	-58	-6076	-49	2	3	-66	-49	-43	-60	-58.611998289263894435	-51.6241878861620762109	-42.2939243947845966431	-53.0246123589149291888
5.0.14.0	win	042419	23:04:49	005	1	game	3	iti	524	1	131	131	0	0	2000	387	2	1	2	-49	-65	-49	-59	-58	-6076	-49	2	3	-66	-49	-43	-60	-58.611998289263894435	-51.6241878861620762109	-42.2939243947845966431	-53.0246123589149291888
5.0.14.0	win	042419	23:04:49	005	1	game	3	selection	525	1	132	132	0	slot2	298	298	2	1	2	-49	-65	-49	-59	-58	-6126	-50	2	3	-57	-50	-44	-53	-53.2492312685795639027	-49.5142062727034044656	-42.2303679313720579103	-52.0679329285117304948
5.0.14.0	win	042419	23:04:49	005	1	game	3	iti	528	1	132	132	0	0	2000	298	2	1	2	-50	-65	-50	-59	-58	-6126	-50	2	3	-57	-50	-44	-53	-53.2492312685795639027	-49.5142062727034044656	-42.2303679313720579103	-52.0679329285117304948
5.0.14.0	win	042419	23:04:49	005	1	game	3	selection	529	1	133	133	0	slot2	533	533	2	1	2	-50	-65	-50	-59	-58	-6177	-51	2	3	-52	-51	-41	-55	-57.8947243517952472303	-51.8881186060511723213	-43.3913443228151081144	-51.7653376046329967153
5.0.14.0	win	042419	23:04:49	005	1	game	3	iti	532	1	133	133	0	0	2000	533	2	1	2	-51	-65	-51	-59	-58	-6177	-51	2	3	-52	-51	-41	-55	-57.8947243517952472303	-51.8881186060511723213	-43.3913443228151081144	-51.7653376046329967153
5.0.14.0	win	042419	23:04:49	005	1	game	3	selection	533	1	134	134	0	slot2	506	506	2	1	2	-51	-65	-51	-59	-58	-6227	-50	2	3	-59	-50	-41	-47	-60.2984467847526630635	-51.5925616925475765129	-44.1724122391851778957	-48.8442892567027513451
5.0.14.0	win	042419	23:04:49	005	1	game	3	iti	536	1	134	134	0	0	2000	506	2	1	2	-50	-65	-50	-59	-58	-6227	-50	2	3	-59	-50	-41	-47	-60.2984467847526630635	-51.5925616925475765129	-44.1724122391851778957	-48.8442892567027513451
5.0.14.0	win	042419	23:04:49	005	1	game	3	selection	537	1	135	135	0	slot2	471	471	2	1	2	-50	-65	-50	-59	-58	-6277	-50	2	3	-59	-50	-41	-53	-60.6262692703545198469	-53.7926803520580705253	-43.1980569958839453193	-50.8005674075054898253
5.0.14.0	win	042419	23:04:49	005	1	game	3	iti	540	1	135	135	0	0	2000	471	2	1	2	-50	-65	-50	-59	-58	-6277	-50	2	3	-59	-50	-41	-53	-60.6262692703545198469	-53.7926803520580705253	-43.1980569958839453193	-50.8005674075054898253
5.0.14.0	win	042419	23:04:49	005	1	game	3	selection	541	1	136	136	0	slot2	329	329	2	1	2	-50	-65	-50	-59	-58	-6333	-56	2	3	-64	-56	-52	-60	-58.3091234340766959576	-55.4007618391113751954	-44.5906196929541920326	-53.2953864196805113806
5.0.14.0	win	042419	23:04:49	005	1	game	3	iti	544	1	136	136	0	0	2000	329	2	1	2	-56	-65	-56	-59	-58	-6333	-56	2	3	-64	-56	-52	-60	-58.3091234340766959576	-55.4007618391113751954	-44.5906196929541920326	-53.2953864196805113806
5.0.14.0	win	042419	23:04:49	005	1	game	3	selection	545	1	137	137	0	slot2	477	477	2	1	2	-56	-65	-56	-59	-58	-6399	-66	2	3	-58	-66	-47	-52	-59.4951644666798600269	-55.4455190622196596451	-42.7951735820958703016	-53.722025197155097942
5.0.14.0	win	042419	23:04:49	005	1	game	3	iti	548	1	137	137	0	0	2000	477	2	1	4	-58	-65	-66	-59	-58	-6399	-66	2	3	-58	-66	-47	-52	-59.4951644666798600269	-55.4455190622196596451	-42.7951735820958703016	-53.722025197155097942
5.0.14.0	win	042419	23:04:49	005	1	game	3	selection	549	1	138	138	0	slot3	451	451	3	2	4	-58	-65	-66	-59	-58	-6438	-39	1	3	-62	-57	-39	-60	-61.9319145064976979143	-55.9032748263541634515	-40.0534495415965423604	-55.0203984503834604425
5.0.14.0	win	042419	23:04:49	005	1	game	3	iti	552	1	138	138	0	0	2000	451	3	2	3	-39	-65	-66	-39	-58	-6438	-39	1	3	-62	-57	-39	-60	-61.9319145064976979143	-55.9032748263541634515	-40.0534495415965423604	-55.0203984503834604425
5.0.14.0	win	042419	23:04:49	005	1	game	3	selection	553	1	139	139	0	slot3	351	351	3	1	3	-39	-65	-66	-39	-58	-6473	-35	1	3	-54	-61	-35	-52	-57.5854144453632414979	-55.6143578378699032783	-41.0245532165838184824	-53.2167480528998879663
5.0.14.0	win	042419	23:04:49	005	1	game	3	iti	556	1	139	139	0	0	2000	351	3	1	3	-35	-65	-66	-35	-58	-6473	-35	1	3	-54	-61	-35	-52	-57.5854144453632414979	-55.6143578378699032783	-41.0245532165838184824	-53.2167480528998879663
5.0.14.0	win	042419	23:04:49	005	1	game	3	selection	557	1	140	140	0	slot3	898	898	3	1	3	-35	-65	-66	-35	-58	-6523	-50	2	2	-56	-41	-50	-57	-61.5893319997946733224	-48.9810290798236920295	-42.5078345774417627467	-59.4762270795567786763
5.0.14.0	win	042419	23:04:49	005	1	game	3	iti	560	1	140	140	0	0	2000	898	3	1	3	-50	-65	-66	-50	-58	-6523	-50	2	2	-56	-41	-50	-57	-61.5893319997946733224	-48.9810290798236920295	-42.5078345774417627467	-59.4762270795567786763
5.0.14.0	win	042419	23:04:49	005	1	game	3	selection	561	1	141	141	0	slot3	567	567	3	1	3	-50	-65	-66	-50	-58	-6562	-39	1	3	-63	-58	-39	-67	-63.4691060223793925843	-51.2498255967910907316	-44.2214781210740426332	-60.4838955181887030221
5.0.14.0	win	042419	23:04:49	005	1	game	3	iti	564	1	141	141	0	0	2000	567	3	1	3	-39	-65	-66	-39	-58	-6562	-39	1	3	-63	-58	-39	-67	-63.4691060223793925843	-51.2498255967910907316	-44.2214781210740426332	-60.4838955181887030221
5.0.14.0	win	042419	23:04:49	005	1	game	3	selection	565	1	142	142	0	slot3	743	743	3	1	3	-39	-65	-66	-39	-58	-6604	-42	1	3	-70	-45	-42	-68	-65.4807954828004312731	-50.8545861649191124343	-49.9229591149431541908	-58.7963324154573996339
5.0.14.0	win	042419	23:04:49	005	1	game	3	iti	568	1	142	142	0	0	2000	743	3	1	3	-42	-65	-66	-42	-58	-6604	-42	1	3	-70	-45	-42	-68	-65.4807954828004312731	-50.8545861649191124343	-49.9229591149431541908	-58.7963324154573996339
5.0.14.0	win	042419	23:04:49	005	1	game	3	selection	569	1	143	143	0	slot3	346	346	3	1	3	-42	-65	-66	-42	-58	-6661	-57	2	2	-64	-50	-57	-55	-65.1894160059296723375	-50.2597528028073412543	-51.013487127925337461	-53.5498414547342989067
5.0.14.0	win	042419	23:04:49	005	1	game	3	iti	572	1	143	143	0	0	2000	346	3	1	3	-57	-65	-66	-57	-58	-6661	-57	2	2	-64	-50	-57	-55	-65.1894160059296723375	-50.2597528028073412543	-51.013487127925337461	-53.5498414547342989067
5.0.14.0	win	042419	23:04:49	005	1	game	3	selection	573	1	144	144	0	slot3	468	468	3	1	3	-57	-65	-66	-57	-58	-6707	-46	1	3	-63	-49	-46	-53	-66.1497013907411286482	-53.9162181596239804549	-48.0395044461438516237	-54.7180307641308019129
5.0.14.0	win	042419	23:04:49	005	1	game	3	iti	576	1	144	144	0	0	2000	468	3	1	3	-46	-65	-66	-46	-58	-6707	-46	1	3	-63	-49	-46	-53	-66.1497013907411286482	-53.9162181596239804549	-48.0395044461438516237	-54.7180307641308019129
5.0.14.0	win	042419	23:04:49	005	1	game	3	selection	577	1	145	145	0	slot3	462	462	3	1	3	-46	-65	-66	-46	-58	-6761	-54	1	3	-60	-59	-54	-58	-60.0396429967890981061	-53.5169486732345234259	-48.6601191487167454852	-54.8282251493208434567
5.0.14.0	win	042419	23:04:49	005	1	game	3	iti	580	1	145	145	0	0	2000	462	3	1	3	-54	-65	-66	-54	-58	-6761	-54	1	3	-60	-59	-54	-58	-60.0396429967890981061	-53.5169486732345234259	-48.6601191487167454852	-54.8282251493208434567
5.0.14.0	win	042419	23:04:49	005	1	game	3	selection	581	1	146	146	0	slot2	458	458	2	2	3	-54	-65	-66	-54	-58	-6819	-58	2	3	-66	-58	-44	-57	-63.2818831695785490865	-51.2249499122653944028	-48.3816381841638261108	-56.8850746091319123821
5.0.14.0	win	042419	23:04:49	005	1	game	3	iti	584	1	146	146	0	0	2000	458	2	2	3	-54	-65	-58	-54	-58	-6819	-58	2	3	-66	-58	-44	-57	-63.2818831695785490865	-51.2249499122653944028	-48.3816381841638261108	-56.8850746091319123821
5.0.14.0	win	042419	23:04:49	005	1	game	3	selection	585	1	147	147	0	slot4	851	851	4	2	3	-54	-65	-58	-54	-58	-6883	-64	2	3	-63	-56	-49	-64	-58.7349863949883470582	-52.376621436024187517	-51.2885529496713488129	-57.5924817654385421406
5.0.14.0	win	042419	23:04:49	005	1	game	3	iti	588	1	147	147	0	0	2000	851	4	2	3	-54	-65	-58	-54	-64	-6883	-64	2	3	-63	-56	-49	-64	-58.7349863949883470582	-52.376621436024187517	-51.2885529496713488129	-57.5924817654385421406
5.0.14.0	win	042419	23:04:49	005	1	game	3	selection	589	1	148	148	0	slot3	284	284	3	1	3	-54	-65	-58	-54	-64	-6934	-51	2	2	-60	-48	-51	-55	-59.0101647320687874299	-55.0357772746298721245	-53.1204459447993997401	-57.0419803462118153448
5.0.14.0	win	042419	23:04:49	005	1	game	3	iti	592	1	148	148	0	0	2000	284	3	1	3	-51	-65	-58	-51	-64	-6934	-51	2	2	-60	-48	-51	-55	-59.0101647320687874299	-55.0357772746298721245	-53.1204459447993997401	-57.0419803462118153448
5.0.14.0	win	042419	23:04:49	005	1	game	3	selection	593	1	149	149	0	slot3	362	362	3	1	3	-51	-65	-58	-51	-64	-6988	-54	2	2	-60	-50	-54	-61	-57.6323257573762219863	-50.4885543349452277084	-51.5592642851980045293	-60.8330363750222673502
5.0.14.0	win	042419	23:04:49	005	1	game	3	iti	596	1	149	149	0	0	2000	362	3	1	3	-54	-65	-58	-54	-64	-6988	-54	2	2	-60	-50	-54	-61	-57.6323257573762219863	-50.4885543349452277084	-51.5592642851980045293	-60.8330363750222673502
5.0.14.0	win	042419	23:04:49	005	1	game	3	selection	597	1	150	150	0	slot1	400	400	1	2	3	-54	-65	-58	-54	-64	-7044	-56	2	2	-56	-47	-61	-59	-56.6874968671441195056	-47.7391761713634181774	-58.2370666633905500476	-57.7443730159418748826
5.0.14.0	win	042419	23:04:49	005	1	game	3	iti	600	1	150	150	0	0	2000	400	1	2	3	-54	-56	-58	-54	-64	-7044	-56	2	2	-56	-47	-61	-59	-56.6874968671441195056	-47.7391761713634181774	-58.2370666633905500476	-57.7443730159418748826
