build	computer.platform	date	time	subject	group	blockcode	blocknum	trialcode	trialnum	values.countRounds	values.TotaltrialCount	values.trialCount_perRound	values.noResponseCount	response	latency	values.selectionRT	values.selectedSlot	values.choice	values.currenthighestSeenPayOffSlot	values.currenthighestSeenPayOff	values.lastSeenPayOff1	values.lastSeenPayOff2	values.lastSeenPayOff3	values.lastSeenPayOff4	values.total	values.currentPayoff	values.highestPayOffSelected	values.currentHighestPayOffSlot	values.payOff1	values.payOff2	values.payOff3	values.payOff4	values.mean1	values.mean2	values.mean3	values.mean4
5.0.14.0	win	042619	22:08:26	006	1	demo	1	selection	2	0	1	1	1	0	1500	1500	0	0	0	0	0	0	0	0	0	0	0	4	36	14	21	47	30.5103087130677934624	13.2193338452951056894	23.4448408202001061795	44.7523557675237739772
5.0.14.0	win	042619	22:08:26	006	1	demo	1	iti	4	0	1	1	1	0	2000	1500	0	0	0	0	0	0	0	0	0	0	0	4	36	14	21	47	30.5103087130677934624	13.2193338452951056894	23.4448408202001061795	44.7523557675237739772
5.0.14.0	win	042619	22:08:26	006	1	demo	1	selection	5	0	2	2	2	0	1500	1500	0	0	0	0	0	0	0	0	0	0	0	4	38	11	19	42	32.0944223810395001806	15.1402850538784576884	21.1801199064187386512	43.7884036147778914483
5.0.14.0	win	042619	22:08:26	006	1	demo	1	iti	7	0	2	2	2	0	2000	1500	0	0	0	0	0	0	0	0	0	0	0	4	38	11	19	42	32.0944223810395001806	15.1402850538784576884	21.1801199064187386512	43.7884036147778914483
5.0.14.0	win	042619	22:08:26	006	1	demo	1	selection	8	0	3	3	2	slot2	1230	1230	2	2	0	0	0	0	0	0	12	12	2	4	36	12	27	44	28.3913073498064285616	17.2424615667118601436	23.7480859071555876483	48.9107485545396230009
5.0.14.0	win	042619	22:08:26	006	1	demo	1	iti	11	0	3	3	2	0	2000	1230	2	2	2	12	0	12	0	0	12	12	2	4	36	12	27	44	28.3913073498064285616	17.2424615667118601436	23.7480859071555876483	48.9107485545396230009
5.0.14.0	win	042619	22:08:26	006	1	demo	1	selection	12	0	4	4	2	slot3	1370	1370	3	2	2	12	0	12	0	0	40	28	2	4	31	20	28	54	32.1995696245226596943	23.0305466197863708544	28.3385961837611475289	48.0015829933326827472
5.0.14.0	win	042619	22:08:26	006	1	demo	1	iti	15	0	4	4	2	0	2000	1370	3	2	3	28	0	12	28	0	40	28	2	4	31	20	28	54	32.1995696245226596943	23.0305466197863708544	28.3385961837611475289	48.0015829933326827472
5.0.14.0	win	042619	22:08:26	006	1	demo	1	selection	16	0	5	5	2	slot4	1083	1083	4	2	3	28	0	12	28	0	85	45	1	4	26	20	30	45	31.2071790053944297938	20.0058277987407464593	28.7424163181242846576	45.2155831603197029267
5.0.14.0	win	042619	22:08:26	006	1	demo	1	iti	19	0	5	5	2	0	2000	1083	4	2	4	45	0	12	28	45	85	45	1	4	26	20	30	45	31.2071790053944297938	20.0058277987407464593	28.7424163181242846576	45.2155831603197029267
5.0.14.0	win	042619	22:08:26	006	1	game	3	selection	1	1	1	1	0	slot3	754	754	3	2	0	0	0	0	0	0	88	88	1	3	43	17	88	70	39.55187729736913127	14.6934522216071012934	84.0438805645279387591	63.0947316986089603574
5.0.14.0	win	042619	22:08:26	006	1	game	3	iti	4	1	1	1	0	0	2000	754	3	2	3	88	0	0	88	0	88	88	1	3	43	17	88	70	39.55187729736913127	14.6934522216071012934	84.0438805645279387591	63.0947316986089603574
5.0.14.0	win	042619	22:08:26	006	1	game	3	selection	5	1	2	2	0	slot1	807	807	1	2	3	88	0	0	88	0	121	33	2	3	33	26	80	66	41.1998736992597400786	18.2792803150250726674	84.1792054758397085834	58.7787254886423085054
5.0.14.0	win	042619	22:08:26	006	1	game	3	iti	8	1	2	2	0	0	2000	807	1	2	3	88	33	0	88	0	121	33	2	3	33	26	80	66	41.1998736992597400786	18.2792803150250726674	84.1792054758397085834	58.7787254886423085054
5.0.14.0	win	042619	22:08:26	006	1	game	3	selection	9	1	3	3	0	slot2	661	661	2	2	3	88	33	0	88	0	140	19	2	3	36	19	83	71	40.1170721240776018135	17.0407137657411418274	85.9217583231514936415	62.7258062196417611744
5.0.14.0	win	042619	22:08:26	006	1	game	3	iti	12	1	3	3	0	0	2000	661	2	2	3	88	33	19	88	0	140	19	2	3	36	19	83	71	40.1170721240776018135	17.0407137657411418274	85.9217583231514936415	62.7258062196417611744
5.0.14.0	win	042619	22:08:26	006	1	game	3	selection	13	1	4	4	0	slot4	481	481	4	2	3	88	33	19	88	0	200	60	2	3	43	15	79	60	41.5641108828162373356	17.2247143151701003205	80.1341229328423025891	59.3719553183329296075
5.0.14.0	win	042619	22:08:26	006	1	game	3	iti	16	1	4	4	0	0	2000	481	4	2	3	88	33	19	88	60	200	60	2	3	43	15	79	60	41.5641108828162373356	17.2247143151701003205	80.1341229328423025891	59.3719553183329296075
5.0.14.0	win	042619	22:08:26	006	1	game	3	selection	17	1	5	5	0	slot3	869	869	3	1	3	88	33	19	88	60	281	81	1	3	41	20	81	51	43.7683457559597499653	15.7726839152234923347	81.5258535271116784315	52.7523219790258650619
5.0.14.0	win	042619	22:08:26	006	1	game	3	iti	20	1	5	5	0	0	2000	869	3	1	3	81	33	19	81	60	281	81	1	3	41	20	81	51	43.7683457559597499653	15.7726839152234923347	81.5258535271116784315	52.7523219790258650619
5.0.14.0	win	042619	22:08:26	006	1	game	3	selection	21	1	6	6	0	slot3	890	890	3	1	3	81	33	19	81	60	359	78	1	3	40	23	78	55	42.8721797309706857959	19.6240920690102988999	80.0883570680821037513	56.2767000282129998823
5.0.14.0	win	042619	22:08:26	006	1	game	3	iti	24	1	6	6	0	0	2000	890	3	1	3	78	33	19	78	60	359	78	1	3	40	23	78	55	42.8721797309706857959	19.6240920690102988999	80.0883570680821037513	56.2767000282129998823
5.0.14.0	win	042619	22:08:26	006	1	game	3	selection	25	1	7	7	0	slot3	933	933	3	1	3	78	33	19	78	60	440	81	1	3	47	17	81	53	49.2660246537200663397	19.5055836823624169085	79.5966303754279351779	60.3782295884710578093
5.0.14.0	win	042619	22:08:26	006	1	game	3	iti	28	1	7	7	0	0	2000	933	3	1	3	81	33	19	81	60	440	81	1	3	47	17	81	53	49.2660246537200663397	19.5055836823624169085	79.5966303754279351779	60.3782295884710578093
5.0.14.0	win	042619	22:08:26	006	1	game	3	selection	29	1	8	8	0	slot4	934	934	4	2	3	81	33	19	81	60	495	55	2	3	46	17	79	55	47.6783929587364312397	18.4900133715510612831	80.285291650093483895	59.1693131885945931003
5.0.14.0	win	042619	22:08:26	006	1	game	3	iti	32	1	8	8	0	0	2000	934	4	2	3	81	33	19	81	55	495	55	2	3	46	17	79	55	47.6783929587364312397	18.4900133715510612831	80.285291650093483895	59.1693131885945931003
5.0.14.0	win	042619	22:08:26	006	1	game	3	selection	33	1	9	9	0	slot3	483	483	3	1	3	81	33	19	81	55	566	71	1	3	48	17	71	58	51.9494839251999778185	13.8154203197644207535	78.7949722757855539612	60.9275805014756244304
5.0.14.0	win	042619	22:08:26	006	1	game	3	iti	36	1	9	9	0	0	2000	483	3	1	3	71	33	19	71	55	566	71	1	3	48	17	71	58	51.9494839251999778185	13.8154203197644207535	78.7949722757855539612	60.9275805014756244304
5.0.14.0	win	042619	22:08:26	006	1	game	3	selection	37	1	10	10	0	slot3	690	690	3	1	3	71	33	19	71	55	647	81	1	3	57	9	81	69	61.1882824256716020273	14.6192656166943422136	79.5048657740931048465	64.7685272925984349968
5.0.14.0	win	042619	22:08:26	006	1	game	3	iti	40	1	10	10	0	0	2000	690	3	1	3	81	33	19	81	55	647	81	1	3	57	9	81	69	61.1882824256716020273	14.6192656166943422136	79.5048657740931048465	64.7685272925984349968
5.0.14.0	win	042619	22:08:26	006	1	game	3	selection	41	1	11	11	0	slot2	1221	1221	2	2	3	81	33	19	81	55	663	16	2	3	64	16	78	62	65.6710378464729700454	13.9965700951455040979	75.8113420448981969457	64.836175968874215414
5.0.14.0	win	042619	22:08:26	006	1	game	3	iti	44	1	11	11	0	0	2000	1221	2	2	3	81	33	16	81	55	663	16	2	3	64	16	78	62	65.6710378464729700454	13.9965700951455040979	75.8113420448981969457	64.836175968874215414
5.0.14.0	win	042619	22:08:26	006	1	game	3	selection	45	1	12	12	0	slot3	964	964	3	1	3	81	33	16	81	55	740	77	1	3	71	24	77	65	69.8193955830762718051	17.5104450711953312236	75.1111902874516630391	61.8548142149907818066
5.0.14.0	win	042619	22:08:26	006	1	game	3	iti	48	1	12	12	0	0	2000	964	3	1	3	77	33	16	77	55	740	77	1	3	71	24	77	65	69.8193955830762718051	17.5104450711953312236	75.1111902874516630391	61.8548142149907818066
5.0.14.0	win	042619	22:08:26	006	1	game	3	selection	49	1	13	13	0	slot3	593	593	3	1	3	77	33	16	77	55	824	84	1	3	70	23	84	58	67.8484162221306235097	18.9126431233423950573	77.8464018689447527777	59.8848756691438808275
5.0.14.0	win	042619	22:08:26	006	1	game	3	iti	52	1	13	13	0	0	2000	593	3	1	3	84	33	16	84	55	824	84	1	3	70	23	84	58	67.8484162221306235097	18.9126431233423950573	77.8464018689447527777	59.8848756691438808275
5.0.14.0	win	042619	22:08:26	006	1	game	3	selection	53	1	14	14	1	0	1500	1500	0	0	3	84	33	16	84	55	824	0	0	3	68	12	73	62	63.1585196852875867535	16.5662574898172998417	76.6553738607595533949	59.3348383958770213553
5.0.14.0	win	042619	22:08:26	006	1	game	3	iti	55	1	14	14	1	0	2000	1500	0	0	3	84	33	16	84	55	824	0	0	3	68	12	73	62	63.1585196852875867535	16.5662574898172998417	76.6553738607595533949	59.3348383958770213553
5.0.14.0	win	042619	22:08:26	006	1	game	3	selection	56	1	15	15	1	slot1	811	811	1	2	3	84	33	16	84	55	889	65	2	3	65	12	73	62	65.8806376699047717693	16.5844593768329779948	76.0074470003796562878	63.6021754207644463008
5.0.14.0	win	042619	22:08:26	006	1	game	3	iti	59	1	15	15	1	0	2000	811	1	2	3	84	65	16	84	55	889	65	2	3	65	12	73	62	65.8806376699047717693	16.5844593768329779948	76.0074470003796562878	63.6021754207644463008
5.0.14.0	win	042619	22:08:26	006	1	game	3	selection	60	1	16	16	2	0	1500	1500	0	0	3	84	65	16	84	55	889	0	0	1	71	17	69	68	68.6267919931699452718	14.5959257484204805166	75.7867636139958875674	62.9855334624925404796
5.0.14.0	win	042619	22:08:26	006	1	game	3	iti	62	1	16	16	2	0	2000	1500	0	0	3	84	65	16	84	55	889	0	0	1	71	17	69	68	68.6267919931699452718	14.5959257484204805166	75.7867636139958875674	62.9855334624925404796
5.0.14.0	win	042619	22:08:26	006	1	game	3	selection	63	1	17	17	2	slot3	634	634	3	1	3	84	65	16	84	55	967	78	1	3	71	16	78	65	69.4222649214474358814	16.2050470195219737946	76.8131700986021144217	63.75205995931302283
5.0.14.0	win	042619	22:08:26	006	1	game	3	iti	66	1	17	17	2	0	2000	634	3	1	3	78	65	16	78	55	967	78	1	3	71	16	78	65	69.4222649214474358814	16.2050470195219737946	76.8131700986021144217	63.75205995931302283
5.0.14.0	win	042619	22:08:26	006	1	game	3	selection	67	1	18	18	2	slot3	1332	1332	3	1	3	78	65	16	78	55	1053	86	1	3	63	16	86	58	68.084351110486664993	16.3375660968905016546	82.3011405844003007815	61.1014237730938134519
5.0.14.0	win	042619	22:08:26	006	1	game	3	iti	70	1	18	18	2	0	2000	1332	3	1	3	86	65	16	86	55	1053	86	1	3	63	16	86	58	68.084351110486664993	16.3375660968905016546	82.3011405844003007815	61.1014237730938134519
5.0.14.0	win	042619	22:08:26	006	1	game	3	selection	71	1	19	19	2	slot3	373	373	3	1	3	86	65	16	86	55	1129	76	1	3	72	17	76	56	67.8147902978812311403	16.7448980216424345713	79.3727103182048665531	54.5741559823032886811
5.0.14.0	win	042619	22:08:26	006	1	game	3	iti	74	1	19	19	2	0	2000	373	3	1	3	76	65	16	76	55	1129	76	1	3	72	17	76	56	67.8147902978812311403	16.7448980216424345713	79.3727103182048665531	54.5741559823032886811
5.0.14.0	win	042619	22:08:26	006	1	game	3	selection	75	1	20	20	2	slot3	649	649	3	1	3	76	65	16	76	55	1202	73	1	3	68	18	73	60	66.6224968962621062474	16.0908705526304771638	76.4108136885351711953	52.4874860307433834805
5.0.14.0	win	042619	22:08:26	006	1	game	3	iti	78	1	20	20	2	0	2000	649	3	1	3	73	65	16	73	55	1202	73	1	3	68	18	73	60	66.6224968962621062474	16.0908705526304771638	76.4108136885351711953	52.4874860307433834805
5.0.14.0	win	042619	22:08:26	006	1	game	3	selection	79	1	21	21	2	slot3	434	434	3	1	3	73	65	16	73	55	1274	72	1	3	67	18	72	60	65.7227238950911356596	10.5646174277008420006	69.9830985012982864646	55.9955005068777396104
5.0.14.0	win	042619	22:08:26	006	1	game	3	iti	82	1	21	21	2	0	2000	434	3	1	3	72	65	16	72	55	1274	72	1	3	67	18	72	60	65.7227238950911356596	10.5646174277008420006	69.9830985012982864646	55.9955005068777396104
5.0.14.0	win	042619	22:08:26	006	1	game	3	selection	83	1	22	22	2	slot1	702	702	1	2	3	72	65	16	72	55	1338	64	2	3	64	8	69	56	63.4718810255288445887	7.8343152564934364079	71.4775651180721354194	56.9237065255106173822
5.0.14.0	win	042619	22:08:26	006	1	game	3	iti	86	1	22	22	2	0	2000	702	1	2	3	72	64	16	72	55	1338	64	2	3	64	8	69	56	63.4718810255288445887	7.8343152564934364079	71.4775651180721354194	56.9237065255106173822
5.0.14.0	win	042619	22:08:26	006	1	game	3	selection	87	1	23	23	2	slot3	490	490	3	1	3	72	64	16	72	55	1409	71	1	3	54	10	71	60	55.7870142117662837222	10.6589953301957116594	73.7174764537377029683	59.6622148985020501755
5.0.14.0	win	042619	22:08:26	006	1	game	3	iti	90	1	23	23	2	0	2000	490	3	1	3	71	64	16	71	55	1409	71	1	3	54	10	71	60	55.7870142117662837222	10.6589953301957116594	73.7174764537377029683	59.6622148985020501755
5.0.14.0	win	042619	22:08:26	006	1	game	3	selection	91	1	24	24	2	slot3	522	522	3	1	3	71	64	16	71	55	1480	71	1	3	47	2	71	55	50.2910480972771694042	6.6786480306042266264	72.8327452126188461534	59.2289304312327899993
5.0.14.0	win	042619	22:08:26	006	1	game	3	iti	94	1	24	24	2	0	2000	522	3	1	3	71	64	16	71	55	1480	71	1	3	47	2	71	55	50.2910480972771694042	6.6786480306042266264	72.8327452126188461534	59.2289304312327899993
5.0.14.0	win	042619	22:08:26	006	1	game	3	selection	95	1	25	25	2	slot3	587	587	3	1	3	71	64	16	71	55	1561	81	1	3	55	4	81	57	53.321710730483317775	7.6537582173214220305	73.2195115674536793904	58.2048599928189958064
5.0.14.0	win	042619	22:08:26	006	1	game	3	iti	98	1	25	25	2	0	2000	587	3	1	3	81	64	16	81	55	1561	81	1	3	55	4	81	57	53.321710730483317775	7.6537582173214220305	73.2195115674536793904	58.2048599928189958064
5.0.14.0	win	042619	22:08:26	006	1	game	3	selection	99	1	26	26	2	slot3	898	898	3	1	3	81	64	16	81	55	1637	76	1	3	56	1	76	55	56.4123594530411693881	8.5800116401144066458	73.4779265674609831649	58.56767220696077203
5.0.14.0	win	042619	22:08:26	006	1	game	3	iti	102	1	26	26	2	0	2000	898	3	1	3	76	64	16	76	55	1637	76	1	3	56	1	76	55	56.4123594530411693881	8.5800116401144066458	73.4779265674609831649	58.56767220696077203
5.0.14.0	win	042619	22:08:26	006	1	game	3	selection	103	1	27	27	2	slot3	699	699	3	1	3	76	64	16	76	55	1705	68	1	3	58	23	68	63	54.1410470237667382776	14.4481218999586040752	75.1636272046658859836	60.5991715891685203133
5.0.14.0	win	042619	22:08:26	006	1	game	3	iti	106	1	27	27	2	0	2000	699	3	1	3	68	64	16	68	55	1705	68	1	3	58	23	68	63	54.1410470237667382776	14.4481218999586040752	75.1636272046658859836	60.5991715891685203133
5.0.14.0	win	042619	22:08:26	006	1	game	3	selection	107	1	28	28	2	slot3	574	574	3	1	3	68	64	16	68	55	1783	78	1	3	55	17	78	63	52.1701819429611148848	14.1934083939796309437	74.2917937918710720169	60.0475116180282881828
5.0.14.0	win	042619	22:08:26	006	1	game	3	iti	110	1	28	28	2	0	2000	574	3	1	3	78	64	16	78	55	1783	78	1	3	55	17	78	63	52.1701819429611148848	14.1934083939796309437	74.2917937918710720169	60.0475116180282881828
5.0.14.0	win	042619	22:08:26	006	1	game	3	selection	111	1	29	29	2	slot3	529	529	3	1	3	78	64	16	78	55	1858	75	1	3	60	13	75	57	54.2483725874709037384	14.7624120917318748525	70.3245909820012542468	58.4958699697552972907
5.0.14.0	win	042619	22:08:26	006	1	game	3	iti	114	1	29	29	2	0	2000	529	3	1	3	75	64	16	75	55	1858	75	1	3	60	13	75	57	54.2483725874709037384	14.7624120917318748525	70.3245909820012542468	58.4958699697552972907
5.0.14.0	win	042619	22:08:26	006	1	game	3	selection	115	1	30	30	2	slot1	1226	1226	1	2	3	75	64	16	75	55	1920	62	2	3	62	11	76	57	59.9325775241610898547	16.7736131419973233392	72.8949137429712834546	61.6562567753868862042
5.0.14.0	win	042619	22:08:26	006	1	game	3	iti	118	1	30	30	2	0	2000	1226	1	2	3	75	62	16	75	55	1920	62	2	3	62	11	76	57	59.9325775241610898547	16.7736131419973233392	72.8949137429712834546	61.6562567753868862042
5.0.14.0	win	042619	22:08:26	006	1	game	3	selection	119	1	31	31	2	slot3	455	455	3	1	3	75	62	16	75	55	1991	71	1	3	59	21	71	51	59.0504852523429519806	19.3108162112934458321	69.3711366876423340955	54.970329356250978492
5.0.14.0	win	042619	22:08:26	006	1	game	3	iti	122	1	31	31	2	0	2000	455	3	1	3	71	62	16	71	55	1991	71	1	3	59	21	71	51	59.0504852523429519806	19.3108162112934458321	69.3711366876423340955	54.970329356250978492
5.0.14.0	win	042619	22:08:26	006	1	game	3	selection	123	1	32	32	2	slot3	474	474	3	1	3	71	62	16	71	55	2061	70	1	3	69	19	70	59	58.297124711216049775	18.0592033716657169862	65.1076286685672016574	60.8490086789278876722
5.0.14.0	win	042619	22:08:26	006	1	game	3	iti	126	1	32	32	2	0	2000	474	3	1	3	70	62	16	70	55	2061	70	1	3	69	19	70	59	58.297124711216049775	18.0592033716657169862	65.1076286685672016574	60.8490086789278876722
5.0.14.0	win	042619	22:08:26	006	1	game	3	selection	127	1	33	33	2	slot3	636	636	3	1	3	70	62	16	70	55	2134	73	1	3	51	22	73	62	56.9426342052756524481	18.9427656879760313302	68.1244059046818080105	60.4819438622583192
5.0.14.0	win	042619	22:08:26	006	1	game	3	iti	130	1	33	33	2	0	2000	636	3	1	3	73	62	16	73	55	2134	73	1	3	51	22	73	62	56.9426342052756524481	18.9427656879760313302	68.1244059046818080105	60.4819438622583192
5.0.14.0	win	042619	22:08:26	006	1	game	3	selection	131	1	34	34	2	slot3	908	908	3	1	3	73	62	16	73	55	2207	73	1	3	63	16	73	55	63.875554475117226616	15.1382168175865992055	70.3025153197483518852	60.0167356408987586747
5.0.14.0	win	042619	22:08:26	006	1	game	3	iti	134	1	34	34	2	0	2000	908	3	1	3	73	62	16	73	55	2207	73	1	3	63	16	73	55	63.875554475117226616	15.1382168175865992055	70.3025153197483518852	60.0167356408987586747
5.0.14.0	win	042619	22:08:26	006	1	game	3	selection	135	1	35	35	2	slot3	903	903	3	1	3	73	62	16	73	55	2279	72	1	3	50	21	72	61	61.4402922534449089653	15.2701057852430164274	71.7632312014244462262	62.5832669783000739017
5.0.14.0	win	042619	22:08:26	006	1	game	3	iti	138	1	35	35	2	0	2000	903	3	1	3	72	62	16	72	55	2279	72	1	3	50	21	72	61	61.4402922534449089653	15.2701057852430164274	71.7632312014244462262	62.5832669783000739017
5.0.14.0	win	042619	22:08:26	006	1	game	3	selection	139	1	36	36	2	slot3	508	508	3	1	3	72	62	16	72	55	2359	80	1	3	59	13	80	66	58.5434390475706010193	14.1993631437274618889	74.0338846236902696774	60.9753126325285705889
5.0.14.0	win	042619	22:08:26	006	1	game	3	iti	142	1	36	36	2	0	2000	508	3	1	3	80	62	16	80	55	2359	80	1	3	59	13	80	66	58.5434390475706010193	14.1993631437274618889	74.0338846236902696774	60.9753126325285705889
5.0.14.0	win	042619	22:08:26	006	1	game	3	selection	143	1	37	37	2	slot3	589	589	3	1	3	80	62	16	80	55	2430	71	1	3	58	9	71	61	53.3774482591191201664	13.4512940355861410069	72.0075079493533820596	58.0692172316956600753
5.0.14.0	win	042619	22:08:26	006	1	game	3	iti	146	1	37	37	2	0	2000	589	3	1	3	71	62	16	71	55	2430	71	1	3	58	9	71	61	53.3774482591191201664	13.4512940355861410069	72.0075079493533820596	58.0692172316956600753
5.0.14.0	win	042619	22:08:26	006	1	game	3	selection	147	1	38	38	2	slot4	719	719	4	2	3	71	62	16	71	55	2485	55	2	3	48	14	69	55	50.2419031545376668646	12.8649823055761221013	70.4905245684864212308	55.2059353780190633643
5.0.14.0	win	042619	22:08:26	006	1	game	3	iti	150	1	38	38	2	0	2000	719	4	2	3	71	62	16	71	55	2485	55	2	3	48	14	69	55	50.2419031545376668646	12.8649823055761221013	70.4905245684864212308	55.2059353780190633643
5.0.14.0	win	042619	22:08:26	006	1	game	3	selection	151	1	39	39	2	slot3	411	411	3	1	3	71	62	16	71	55	2552	67	1	3	56	14	67	50	52.5249123999767064674	19.1475253320357019504	66.8484754501434252916	50.8904947123967943412
5.0.14.0	win	042619	22:08:26	006	1	game	3	iti	154	1	39	39	2	0	2000	411	3	1	3	67	62	16	67	55	2552	67	1	3	56	14	67	50	52.5249123999767064674	19.1475253320357019504	66.8484754501434252916	50.8904947123967943412
5.0.14.0	win	042619	22:08:26	006	1	game	3	selection	155	1	40	40	2	slot3	692	692	3	1	3	67	62	16	67	55	2611	59	1	3	49	18	59	52	53.6964212345542293292	18.9698833179970129947	67.2637530382396136019	54.9662012231024590392
5.0.14.0	win	042619	22:08:26	006	1	game	3	iti	158	1	40	40	2	0	2000	692	3	1	1	62	62	16	59	55	2611	59	1	3	49	18	59	52	53.6964212345542293292	18.9698833179970129947	67.2637530382396136019	54.9662012231024590392
5.0.14.0	win	042619	22:08:26	006	1	game	3	selection	159	1	41	41	2	slot1	1159	1159	1	1	1	62	62	16	59	55	2670	59	2	3	59	16	65	56	51.8934333358394965785	19.1603809767224184668	61.9880417327505455205	48.977803266804244231
5.0.14.0	win	042619	22:08:26	006	1	game	3	iti	162	1	41	41	2	0	2000	1159	1	1	1	59	59	16	59	55	2670	59	2	3	59	16	65	56	51.8934333358394965785	19.1603809767224184668	61.9880417327505455205	48.977803266804244231
5.0.14.0	win	042619	22:08:26	006	1	game	3	selection	163	1	42	42	2	slot3	1148	1148	3	2	1	59	59	16	59	55	2724	54	2	1	59	21	54	47	52.3009011595820538787	19.4278175458914148521	62.7120317787195773462	47.863378027421234151
5.0.14.0	win	042619	22:08:26	006	1	game	3	iti	166	1	42	42	2	0	2000	1148	3	2	1	59	59	16	54	55	2724	54	2	1	59	21	54	47	52.3009011595820538787	19.4278175458914148521	62.7120317787195773462	47.863378027421234151
5.0.14.0	win	042619	22:08:26	006	1	game	3	selection	167	1	43	43	2	slot1	1174	1174	1	1	1	59	59	16	54	55	2772	48	2	3	48	18	66	45	49.9953380801062294836	17.9853990342946907788	63.4823271391294809973	43.8572753684333278557
5.0.14.0	win	042619	22:08:26	006	1	game	3	iti	170	1	43	43	2	0	2000	1174	1	1	4	55	48	16	54	55	2772	48	2	3	48	18	66	45	49.9953380801062294836	17.9853990342946907788	63.4823271391294809973	43.8572753684333278557
5.0.14.0	win	042619	22:08:26	006	1	game	3	selection	171	1	44	44	2	slot4	459	459	4	1	4	55	48	16	54	55	2822	50	2	3	41	13	64	50	46.9919954325369317871	16.356870914927750249	63.367891258458243442	45.7741929634108686287
5.0.14.0	win	042619	22:08:26	006	1	game	3	iti	174	1	44	44	2	0	2000	459	4	1	3	54	48	16	54	50	2822	50	2	3	41	13	64	50	46.9919954325369317871	16.356870914927750249	63.367891258458243442	45.7741929634108686287
5.0.14.0	win	042619	22:08:26	006	1	game	3	selection	175	1	45	45	2	slot2	940	940	2	2	3	54	48	16	54	50	2837	15	2	3	44	15	66	39	46.4323050677099189443	14.3810761254348236093	65.9834178843459255859	45.685481795590661136
5.0.14.0	win	042619	22:08:26	006	1	game	3	iti	178	1	45	45	2	0	2000	940	2	2	3	54	48	15	54	50	2837	15	2	3	44	15	66	39	46.4323050677099189443	14.3810761254348236093	65.9834178843459255859	45.685481795590661136
5.0.14.0	win	042619	22:08:26	006	1	game	3	selection	179	1	46	46	2	slot4	1071	1071	4	2	3	54	48	15	54	50	2879	42	2	3	47	21	62	42	46.6496750874516052932	15.6687715665958222644	57.935108796504636075	48.161043339768241367
5.0.14.0	win	042619	22:08:26	006	1	game	3	iti	182	1	46	46	2	0	2000	1071	4	2	3	54	48	15	54	42	2879	42	2	3	47	21	62	42	46.6496750874516052932	15.6687715665958222644	57.935108796504636075	48.161043339768241367
5.0.14.0	win	042619	22:08:26	006	1	game	3	selection	183	1	47	47	2	slot3	561	561	3	1	3	54	48	15	54	42	2938	59	1	3	44	16	59	50	43.6436953334269901461	13.1626937808755766213	57.4290631178041550697	50.2024337231890598332
5.0.14.0	win	042619	22:08:26	006	1	game	3	iti	186	1	47	47	2	0	2000	561	3	1	3	59	48	15	59	42	2938	59	1	3	44	16	59	50	43.6436953334269901461	13.1626937808755766213	57.4290631178041550697	50.2024337231890598332
5.0.14.0	win	042619	22:08:26	006	1	game	3	selection	187	1	48	48	2	slot1	1009	1009	1	2	3	59	48	15	59	42	2983	45	2	3	45	25	51	47	45.7501666889202880384	17.9636816862697870079	56.407610070651571732	51.4286043522191249622
5.0.14.0	win	042619	22:08:26	006	1	game	3	iti	190	1	48	48	2	0	2000	1009	1	2	3	59	45	15	59	42	2983	45	2	3	45	25	51	47	45.7501666889202880384	17.9636816862697870079	56.407610070651571732	51.4286043522191249622
5.0.14.0	win	042619	22:08:26	006	1	game	3	selection	191	1	49	49	2	slot3	1148	1148	3	1	3	59	45	15	59	42	3034	51	2	4	36	14	51	52	42.143649875739740196	16.0579373014723856272	52.9396813189559480861	54.2021375268177791895
5.0.14.0	win	042619	22:08:26	006	1	game	3	iti	194	1	49	49	2	0	2000	1148	3	1	3	51	45	15	51	42	3034	51	2	4	36	14	51	52	42.143649875739740196	16.0579373014723856272	52.9396813189559480861	54.2021375268177791895
5.0.14.0	win	042619	22:08:26	006	1	game	3	selection	195	1	50	50	3	0	1500	1500	0	0	3	51	45	15	51	42	3034	0	0	4	39	14	46	55	46.8129101420572837355	12.9250970759873808902	48.0830534711513593038	54.5294293994851173579
5.0.14.0	win	042619	22:08:26	006	1	game	3	iti	197	1	50	50	3	0	2000	1500	0	0	3	51	45	15	51	42	3034	0	0	4	39	14	46	55	46.8129101420572837355	12.9250970759873808902	48.0830534711513593038	54.5294293994851173579
5.0.14.0	win	042619	22:08:26	006	1	game	3	selection	198	1	51	51	3	slot1	421	421	1	2	3	51	45	15	51	42	3081	47	2	4	47	17	44	60	47.485121233125859419	16.9746486670544811659	48.7912746445141962681	55.4610668030318052502
5.0.14.0	win	042619	22:08:26	006	1	game	3	iti	201	1	51	51	3	0	2000	421	1	2	3	51	47	15	51	42	3081	47	2	4	47	17	44	60	47.485121233125859419	16.9746486670544811659	48.7912746445141962681	55.4610668030318052502
5.0.14.0	win	042619	22:08:26	006	1	game	3	selection	202	1	52	52	3	slot4	719	719	4	2	3	51	47	15	51	42	3137	56	1	4	46	22	37	56	49.4378868942684803756	18.7839939535092952383	45.5369772067701887863	51.7152499359274173685
5.0.14.0	win	042619	22:08:26	006	1	game	3	iti	205	1	52	52	3	0	2000	719	4	2	4	56	47	15	51	56	3137	56	1	4	46	22	37	56	49.4378868942684803756	18.7839939535092952383	45.5369772067701887863	51.7152499359274173685
5.0.14.0	win	042619	22:08:26	006	1	game	3	selection	206	1	53	53	3	slot3	865	865	3	2	4	56	47	15	51	56	3178	41	2	4	53	20	41	56	53.7813547869750081531	14.9695340535466812071	45.4584912931377758127	54.3293295627598524788
5.0.14.0	win	042619	22:08:26	006	1	game	3	iti	209	1	53	53	3	0	2000	865	3	2	4	56	47	15	41	56	3178	41	2	4	53	20	41	56	53.7813547869750081531	14.9695340535466812071	45.4584912931377758127	54.3293295627598524788
5.0.14.0	win	042619	22:08:26	006	1	game	3	selection	210	1	54	54	3	slot4	972	972	4	1	4	56	47	15	41	56	3234	56	2	1	59	18	50	56	57.7511705191758863975	20.2060262194824389326	48.9924659667777007144	50.9378265506122289707
5.0.14.0	win	042619	22:08:26	006	1	game	3	iti	213	1	54	54	3	0	2000	972	4	1	4	56	47	15	41	56	3234	56	2	1	59	18	50	56	57.7511705191758863975	20.2060262194824389326	48.9924659667777007144	50.9378265506122289707
5.0.14.0	win	042619	22:08:26	006	1	game	3	selection	214	1	55	55	3	slot4	425	425	4	1	4	56	47	15	41	56	3279	45	2	1	53	24	46	45	56.2654572906302590241	24.8537516891355565463	44.2279511760882684257	49.7069035081343102433
5.0.14.0	win	042619	22:08:26	006	1	game	3	iti	217	1	55	55	3	0	2000	425	4	1	1	47	47	15	41	45	3279	45	2	1	53	24	46	45	56.2654572906302590241	24.8537516891355565463	44.2279511760882684257	49.7069035081343102433
5.0.14.0	win	042619	22:08:26	006	1	game	3	selection	218	1	56	56	3	slot1	675	675	1	1	1	47	47	15	41	45	3339	60	1	1	60	20	39	51	59.0737411653473714068	22.0364207711659609856	39.3132846709275298736	46.633252988539119599
5.0.14.0	win	042619	22:08:26	006	1	game	3	iti	221	1	56	56	3	0	2000	675	1	1	1	60	60	15	41	45	3339	60	1	1	60	20	39	51	59.0737411653473714068	22.0364207711659609856	39.3132846709275298736	46.633252988539119599
5.0.14.0	win	042619	22:08:26	006	1	game	3	selection	222	1	57	57	3	slot4	1003	1003	4	2	1	60	60	15	41	45	3382	43	2	1	61	29	45	43	55.3330658300666655691	22.0477074581780563278	41.9057463802320384616	42.8727451942258070972
5.0.14.0	win	042619	22:08:26	006	1	game	3	iti	225	1	57	57	3	0	2000	1003	4	2	1	60	60	15	41	43	3382	43	2	1	61	29	45	43	55.3330658300666655691	22.0477074581780563278	41.9057463802320384616	42.8727451942258070972
5.0.14.0	win	042619	22:08:26	006	1	game	3	selection	226	1	58	58	3	slot1	712	712	1	1	1	60	60	15	41	43	3434	52	1	1	52	32	36	48	57.5544648582742439658	25.2901989895372807382	41.3297221000926455758	43.053270842912915839
5.0.14.0	win	042619	22:08:26	006	1	game	3	iti	229	1	58	58	3	0	2000	712	1	1	1	52	52	15	41	43	3434	52	1	1	52	32	36	48	57.5544648582742439658	25.2901989895372807382	41.3297221000926455758	43.053270842912915839
5.0.14.0	win	042619	22:08:26	006	1	game	3	selection	230	1	59	59	3	slot3	1001	1001	3	2	1	52	52	15	41	43	3471	37	2	1	55	25	37	46	55.5188822253912661608	26.6357119446082464265	41.7580927794916263451	46.4021150076010968633
5.0.14.0	win	042619	22:08:26	006	1	game	3	iti	233	1	59	59	3	0	2000	1001	3	2	1	52	52	15	37	43	3471	37	2	1	55	25	37	46	55.5188822253912661608	26.6357119446082464265	41.7580927794916263451	46.4021150076010968633
5.0.14.0	win	042619	22:08:26	006	1	game	3	selection	234	1	60	60	3	slot4	489	489	4	2	1	52	52	15	37	43	3518	47	2	1	59	23	52	47	60.703461075920252199	21.0293746447509164454	42.247455200045656909	48.8443153394604294704
5.0.14.0	win	042619	22:08:26	006	1	game	3	iti	237	1	60	60	3	0	2000	489	4	2	1	52	52	15	37	47	3518	47	2	1	59	23	52	47	60.703461075920252199	21.0293746447509164454	42.247455200045656909	48.8443153394604294704
5.0.14.0	win	042619	22:08:26	006	1	game	3	selection	238	1	61	61	3	slot1	410	410	1	1	1	52	52	15	37	47	3578	60	1	1	60	25	49	52	57.7953481526003827184	20.7791679277158038985	43.4398285090572855438	53.7515417353798383715
5.0.14.0	win	042619	22:08:26	006	1	game	3	iti	241	1	61	61	3	0	2000	410	1	1	1	60	60	15	37	47	3578	60	1	1	60	25	49	52	57.7953481526003827184	20.7791679277158038985	43.4398285090572855438	53.7515417353798383715
5.0.14.0	win	042619	22:08:26	006	1	game	3	selection	242	1	62	62	3	slot1	501	501	1	1	1	60	60	15	37	47	3633	55	1	1	55	22	38	54	59.08895495420804167	22.1460763861032390309	42.4276547239614600926	58.5598344567880673139
5.0.14.0	win	042619	22:08:26	006	1	game	3	iti	245	1	62	62	3	0	2000	501	1	1	1	55	55	15	37	47	3633	55	1	1	55	22	38	54	59.08895495420804167	22.1460763861032390309	42.4276547239614600926	58.5598344567880673139
5.0.14.0	win	042619	22:08:26	006	1	game	3	selection	246	1	63	63	3	slot4	589	589	4	2	1	55	55	15	37	47	3690	57	2	1	58	26	44	57	58.1718824496619788533	22.875671185599419033	47.4291706237556169867	59.9456031309291432763
5.0.14.0	win	042619	22:08:26	006	1	game	3	iti	249	1	63	63	3	0	2000	589	4	2	4	57	55	15	37	57	3690	57	2	1	58	26	44	57	58.1718824496619788533	22.875671185599419033	47.4291706237556169867	59.9456031309291432763
5.0.14.0	win	042619	22:08:26	006	1	game	3	selection	250	1	64	64	3	slot1	962	962	1	2	4	57	55	15	37	57	3747	57	2	4	57	28	51	61	59.4637740323822896471	25.2387336825578856292	44.5782036254738400771	59.653928612944199017
5.0.14.0	win	042619	22:08:26	006	1	game	3	iti	253	1	64	64	3	0	2000	962	1	2	1	57	57	15	37	57	3747	57	2	4	57	28	51	61	59.4637740323822896471	25.2387336825578856292	44.5782036254738400771	59.653928612944199017
5.0.14.0	win	042619	22:08:26	006	1	game	3	selection	254	1	65	65	3	slot1	1496	1496	1	1	1	57	57	15	37	57	3802	55	2	4	55	26	42	58	59.5627570006028363991	22.2874796100183480974	49.6595254392907179408	59.753718646924262714
5.0.14.0	win	042619	22:08:26	006	1	game	3	iti	257	1	65	65	3	0	2000	1496	1	1	4	57	55	15	37	57	3802	55	2	4	55	26	42	58	59.5627570006028363991	22.2874796100183480974	49.6595254392907179408	59.753718646924262714
5.0.14.0	win	042619	22:08:26	006	1	game	3	selection	258	1	66	66	4	0	1500	1500	0	0	4	57	55	15	37	57	3802	0	0	4	61	23	55	63	60.4309354231335476015	23.0239496217810035716	52.8769911187605430314	57.7316531822046385969
5.0.14.0	win	042619	22:08:26	006	1	game	3	iti	260	1	66	66	4	0	2000	1500	0	0	4	57	55	15	37	57	3802	0	0	4	61	23	55	63	60.4309354231335476015	23.0239496217810035716	52.8769911187605430314	57.7316531822046385969
5.0.14.0	win	042619	22:08:26	006	1	game	3	selection	261	1	67	67	4	slot4	850	850	4	1	4	57	55	15	37	57	3862	60	1	4	59	29	56	60	60.8987331261662205861	23.0665460505422217352	53.7239504284444606697	60.3067663639528461772
5.0.14.0	win	042619	22:08:26	006	1	game	3	iti	264	1	67	67	4	0	2000	850	4	1	4	60	55	15	37	60	3862	60	1	4	59	29	56	60	60.8987331261662205861	23.0665460505422217352	53.7239504284444606697	60.3067663639528461772
5.0.14.0	win	042619	22:08:26	006	1	game	3	selection	265	1	68	68	4	slot1	1166	1166	1	2	4	60	55	15	37	60	3926	64	1	1	64	24	50	59	63.3204305525014987666	23.3930752761215430269	50.0916646408260035628	62.9616243202129695078
5.0.14.0	win	042619	22:08:26	006	1	game	3	iti	268	1	68	68	4	0	2000	1166	1	2	1	64	64	15	37	60	3926	64	1	1	64	24	50	59	63.3204305525014987666	23.3930752761215430269	50.0916646408260035628	62.9616243202129695078
5.0.14.0	win	042619	22:08:26	006	1	game	3	selection	269	1	69	69	4	slot1	978	978	1	1	1	64	64	15	37	60	3995	69	1	1	69	16	54	63	63.1405000938867857485	20.5002721443525608436	52.4489149403084837786	58.821395863391572334
5.0.14.0	win	042619	22:08:26	006	1	game	3	iti	272	1	69	69	4	0	2000	978	1	1	1	69	69	15	37	60	3995	69	1	1	69	16	54	63	63.1405000938867857485	20.5002721443525608436	52.4489149403084837786	58.821395863391572334
5.0.14.0	win	042619	22:08:26	006	1	game	3	selection	273	1	70	70	4	slot4	1399	1399	4	2	1	69	69	15	37	60	4045	50	2	1	63	18	61	50	60.4524403402191765622	20.2618303390198022385	58.1861091276212221146	58.7574311341384003526
5.0.14.0	win	042619	22:08:26	006	1	game	3	iti	276	1	70	70	4	0	2000	1399	4	2	1	69	69	15	37	50	4045	50	2	1	63	18	61	50	60.4524403402191765622	20.2618303390198022385	58.1861091276212221146	58.7574311341384003526
5.0.14.0	win	042619	22:08:26	006	1	game	3	selection	277	1	71	71	4	slot1	959	959	1	1	1	69	69	15	37	50	4103	58	2	4	58	23	54	59	55.3727898379985745692	22.9600106731045521258	55.9773429004194511549	62.8380138373661338846
5.0.14.0	win	042619	22:08:26	006	1	game	3	iti	280	1	71	71	4	0	2000	959	1	1	1	58	58	15	37	50	4103	58	2	4	58	23	54	59	55.3727898379985745692	22.9600106731045521258	55.9773429004194511549	62.8380138373661338846
5.0.14.0	win	042619	22:08:26	006	1	game	3	selection	281	1	72	72	4	slot1	463	463	1	1	1	58	58	15	37	50	4159	56	2	4	56	23	53	66	51.5405314466543416074	22.7183660695487290582	54.5335264087813200717	61.6463492929989769209
5.0.14.0	win	042619	22:08:26	006	1	game	3	iti	284	1	72	72	4	0	2000	463	1	1	1	56	56	15	37	50	4159	56	2	4	56	23	53	66	51.5405314466543416074	22.7183660695487290582	54.5335264087813200717	61.6463492929989769209
5.0.14.0	win	042619	22:08:26	006	1	game	3	selection	285	1	73	73	4	slot1	562	562	1	1	1	56	56	15	37	50	4214	55	1	1	55	22	48	53	56.8113402779284015764	25.5294462919792408684	50.3786348372413286256	59.0528334869514281991
5.0.14.0	win	042619	22:08:26	006	1	game	3	iti	288	1	73	73	4	0	2000	562	1	1	1	55	55	15	37	50	4214	55	1	1	55	22	48	53	56.8113402779284015764	25.5294462919792408684	50.3786348372413286256	59.0528334869514281991
5.0.14.0	win	042619	22:08:26	006	1	game	3	selection	289	1	74	74	4	slot4	519	519	4	2	1	55	55	15	37	50	4269	55	1	4	52	20	49	55	54.1772257352387143214	23.4374737505669905602	47.881652904745571675	59.3634416224804013495
5.0.14.0	win	042619	22:08:26	006	1	game	3	iti	292	1	74	74	4	0	2000	519	4	2	1	55	55	15	37	55	4269	55	1	4	52	20	49	55	54.1772257352387143214	23.4374737505669905602	47.881652904745571675	59.3634416224804013495
5.0.14.0	win	042619	22:08:26	006	1	game	3	selection	293	1	75	75	4	slot4	517	517	4	2	1	55	55	15	37	55	4329	60	2	1	63	19	43	60	54.7018822013614283151	19.6509810589959705851	45.8247268058691616943	60.721869980250886556
5.0.14.0	win	042619	22:08:26	006	1	game	3	iti	296	1	75	75	4	0	2000	517	4	2	4	60	55	15	37	60	4329	60	2	1	63	19	43	60	54.7018822013614283151	19.6509810589959705851	45.8247268058691616943	60.721869980250886556
5.0.14.0	win	042619	22:08:26	006	1	game	3	selection	297	1	76	76	4	slot4	430	430	4	1	4	60	55	15	37	60	4396	67	1	4	65	23	47	67	63.5379592309012366513	20.4171929575816619717	45.4364642867427619422	63.0941986042346485419
5.0.14.0	win	042619	22:08:26	006	1	game	3	iti	300	1	76	76	4	0	2000	430	4	1	4	67	55	15	37	67	4396	67	1	4	65	23	47	67	63.5379592309012366513	20.4171929575816619717	45.4364642867427619422	63.0941986042346485419
5.0.14.0	win	042619	22:08:26	006	1	game	3	selection	301	1	77	77	4	slot4	346	346	4	1	4	67	55	15	37	67	4466	70	1	4	69	22	58	70	63.3619505825832121104	18.8450275844086014843	45.2082285742768448245	67.81943535913532628
5.0.14.0	win	042619	22:08:26	006	1	game	3	iti	304	1	77	77	4	0	2000	346	4	1	4	70	55	15	37	70	4466	70	1	4	69	22	58	70	63.3619505825832121104	18.8450275844086014843	45.2082285742768448245	67.81943535913532628
5.0.14.0	win	042619	22:08:26	006	1	game	3	selection	305	1	78	78	4	slot4	380	380	4	1	4	70	55	15	37	70	4535	69	1	4	67	13	43	69	62.9084078695673056814	15.6334987136488159365	42.7874960973398970054	64.9253621857671845419
5.0.14.0	win	042619	22:08:26	006	1	game	3	iti	308	1	78	78	4	0	2000	380	4	1	4	69	55	15	37	69	4535	69	1	4	67	13	43	69	62.9084078695673056814	15.6334987136488159365	42.7874960973398970054	64.9253621857671845419
5.0.14.0	win	042619	22:08:26	006	1	game	3	selection	309	1	79	79	4	slot4	385	385	4	1	4	69	55	15	37	69	4601	66	1	4	63	25	45	66	59.6243210701477721614	18.1231019162902562414	42.6309349223440250398	65.2355728002485761863
5.0.14.0	win	042619	22:08:26	006	1	game	3	iti	312	1	79	79	4	0	2000	385	4	1	4	66	55	15	37	66	4601	66	1	4	63	25	45	66	59.6243210701477721614	18.1231019162902562414	42.6309349223440250398	65.2355728002485761863
5.0.14.0	win	042619	22:08:26	006	1	game	3	selection	313	1	80	80	4	slot1	796	796	1	2	4	66	55	15	37	66	4649	48	2	4	48	15	46	63	56.6416244856838417832	23.6747831971241247118	47.3804712488414452309	65.1514944694506539236
5.0.14.0	win	042619	22:08:26	006	1	game	3	iti	316	1	80	80	4	0	2000	796	1	2	4	66	48	15	37	66	4649	48	2	4	48	15	46	63	56.6416244856838417832	23.6747831971241247118	47.3804712488414452309	65.1514944694506539236
5.0.14.0	win	042619	22:08:26	006	1	game	3	selection	317	1	81	81	4	slot4	392	392	4	1	4	66	48	15	37	66	4721	72	1	4	52	21	41	72	56.7964143761970561286	21.4034512271340950917	44.8378790283140915562	64.6583925593447617075
5.0.14.0	win	042619	22:08:26	006	1	game	3	iti	320	1	81	81	4	0	2000	392	4	1	4	72	48	15	37	72	4721	72	1	4	52	21	41	72	56.7964143761970561286	21.4034512271340950917	44.8378790283140915562	64.6583925593447617075
5.0.14.0	win	042619	22:08:26	006	1	game	3	selection	321	1	82	82	4	slot4	497	497	4	1	4	72	48	15	37	72	4784	63	1	4	61	29	45	63	63.2098902405054587916	24.3320735932950427127	41.0126620923792160056	66.9026193271496083526
5.0.14.0	win	042619	22:08:26	006	1	game	3	iti	324	1	82	82	4	0	2000	497	4	1	4	63	48	15	37	63	4784	63	1	4	61	29	45	63	63.2098902405054587916	24.3320735932950427127	41.0126620923792160056	66.9026193271496083526
5.0.14.0	win	042619	22:08:26	006	1	game	3	selection	325	1	83	83	4	slot4	412	412	4	1	4	63	48	15	37	63	4846	62	1	4	58	24	34	62	59.0353596752834732797	23.8971101428318952742	35.4363153037086746622	62.1352307189808428234
5.0.14.0	win	042619	22:08:26	006	1	game	3	iti	328	1	83	83	4	0	2000	412	4	1	4	62	48	15	37	62	4846	62	1	4	58	24	34	62	59.0353596752834732797	23.8971101428318952742	35.4363153037086746622	62.1352307189808428234
5.0.14.0	win	042619	22:08:26	006	1	game	3	selection	329	1	84	84	4	slot4	492	492	4	1	4	62	48	15	37	62	4907	61	1	4	59	25	40	61	54.4115896219153682978	28.1014843216366756451	34.6298349799114362213	60.7974459809939062893
5.0.14.0	win	042619	22:08:26	006	1	game	3	iti	332	1	84	84	4	0	2000	492	4	1	4	61	48	15	37	61	4907	61	1	4	59	25	40	61	54.4115896219153682978	28.1014843216366756451	34.6298349799114362213	60.7974459809939062893
5.0.14.0	win	042619	22:08:26	006	1	game	3	selection	333	1	85	85	4	slot4	513	513	4	1	4	61	48	15	37	61	4976	69	1	4	56	19	33	69	52.581447210689361782	25.1517389804851418944	35.6030699159506340834	65.8011550636118016655
5.0.14.0	win	042619	22:08:26	006	1	game	3	iti	336	1	85	85	4	0	2000	513	4	1	4	69	48	15	37	69	4976	69	1	4	56	19	33	69	52.581447210689361782	25.1517389804851418944	35.6030699159506340834	65.8011550636118016655
5.0.14.0	win	042619	22:08:26	006	1	game	3	selection	337	1	86	86	4	slot4	521	521	4	1	4	69	48	15	37	69	5040	64	1	4	39	26	44	64	44.7382767944632320223	28.6341536002944145878	39.1450458863139587606	64.6078314584899402462
5.0.14.0	win	042619	22:08:26	006	1	game	3	iti	340	1	86	86	4	0	2000	521	4	1	4	64	48	15	37	64	5040	64	1	4	39	26	44	64	44.7382767944632320223	28.6341536002944145878	39.1450458863139587606	64.6078314584899402462
5.0.14.0	win	042619	22:08:26	006	1	game	3	selection	341	1	87	87	4	slot4	754	754	4	1	4	64	48	15	37	64	5109	69	1	4	56	30	35	69	51.0211410768710891261	29.7424211295357068252	40.1845998135066793111	65.3682983833313926425
5.0.14.0	win	042619	22:08:26	006	1	game	3	iti	344	1	87	87	4	0	2000	754	4	1	4	69	48	15	37	69	5109	69	1	4	56	30	35	69	51.0211410768710891261	29.7424211295357068252	40.1845998135066793111	65.3682983833313926425
5.0.14.0	win	042619	22:08:26	006	1	game	3	selection	345	1	88	88	4	slot4	1323	1323	4	1	4	69	48	15	37	69	5172	63	1	4	50	23	43	63	52.3962698677872253938	26.9458549283272041919	42.9954348567614204057	65.8167160545374940739
5.0.14.0	win	042619	22:08:26	006	1	game	3	iti	348	1	88	88	4	0	2000	1323	4	1	4	63	48	15	37	63	5172	63	1	4	50	23	43	63	52.3962698677872253938	26.9458549283272041919	42.9954348567614204057	65.8167160545374940739
5.0.14.0	win	042619	22:08:26	006	1	game	3	selection	349	1	89	89	4	slot1	672	672	1	2	4	63	48	15	37	63	5219	47	2	4	47	19	49	68	45.6929866420933166182	26.7852669752984446916	43.0413357258716118281	67.5704929648138232778
5.0.14.0	win	042619	22:08:26	006	1	game	3	iti	352	1	89	89	4	0	2000	672	1	2	4	63	47	15	37	63	5219	47	2	4	47	19	49	68	45.6929866420933166182	26.7852669752984446916	43.0413357258716118281	67.5704929648138232778
5.0.14.0	win	042619	22:08:26	006	1	game	3	selection	353	1	90	90	4	slot4	879	879	4	1	4	63	47	15	37	63	5289	70	1	4	47	33	43	70	44.1720628392023115794	30.2779425730011908513	43.736516762133341274	68.6134419116464471244
5.0.14.0	win	042619	22:08:26	006	1	game	3	iti	356	1	90	90	4	0	2000	879	4	1	4	70	47	15	37	70	5289	70	1	4	47	33	43	70	44.1720628392023115794	30.2779425730011908513	43.736516762133341274	68.6134419116464471244
5.0.14.0	win	042619	22:08:26	006	1	game	3	selection	357	1	91	91	4	slot4	713	713	4	1	4	70	47	15	37	70	5366	77	1	4	47	23	49	77	41.1323674414298636748	23.0075935787027106016	47.6881174468810371536	69.3281964941777744116
5.0.14.0	win	042619	22:08:26	006	1	game	3	iti	360	1	91	91	4	0	2000	713	4	1	4	77	47	15	37	77	5366	77	1	4	47	23	49	77	41.1323674414298636748	23.0075935787027106016	47.6881174468810371536	69.3281964941777744116
5.0.14.0	win	042619	22:08:26	006	1	game	3	selection	361	1	92	92	4	slot4	441	441	4	1	4	77	47	15	37	77	5429	63	1	4	40	15	41	63	40.7328844071255957715	22.5898188546675129373	44.4830729662874091446	67.1134388512613213607
5.0.14.0	win	042619	22:08:26	006	1	game	3	iti	364	1	92	92	4	0	2000	441	4	1	4	63	47	15	37	63	5429	63	1	4	40	15	41	63	40.7328844071255957715	22.5898188546675129373	44.4830729662874091446	67.1134388512613213607
5.0.14.0	win	042619	22:08:26	006	1	game	3	selection	365	1	93	93	4	slot4	397	397	4	1	4	63	47	15	37	63	5505	76	1	4	47	8	40	76	42.7965378559215849918	19.1731192582266878333	44.5795960130011437172	73.2086916375785534683
5.0.14.0	win	042619	22:08:26	006	1	game	3	iti	368	1	93	93	4	0	2000	397	4	1	4	76	47	15	37	76	5505	76	1	4	47	8	40	76	42.7965378559215849918	19.1731192582266878333	44.5795960130011437172	73.2086916375785534683
5.0.14.0	win	042619	22:08:26	006	1	game	3	selection	369	1	94	94	4	slot4	500	500	4	1	4	76	47	15	37	76	5569	64	1	4	41	25	40	64	43.4383345866427532656	17.7608037638425066973	39.1540823568088782736	67.725637513571598447
5.0.14.0	win	042619	22:08:26	006	1	game	3	iti	372	1	94	94	4	0	2000	500	4	1	4	64	47	15	37	64	5569	64	1	4	41	25	40	64	43.4383345866427532656	17.7608037638425066973	39.1540823568088782736	67.725637513571598447
5.0.14.0	win	042619	22:08:26	006	1	game	3	selection	373	1	95	95	4	slot4	375	375	4	1	4	64	47	15	37	64	5636	67	1	4	43	14	35	67	46.9232277220567581821	18.6217078160729698766	37.1655427368020383483	66.7950574383574036119
5.0.14.0	win	042619	22:08:26	006	1	game	3	iti	376	1	95	95	4	0	2000	375	4	1	4	67	47	15	37	67	5636	67	1	4	43	14	35	67	46.9232277220567581821	18.6217078160729698766	37.1655427368020383483	66.7950574383574036119
5.0.14.0	win	042619	22:08:26	006	1	game	3	selection	377	1	96	96	4	slot4	553	553	4	1	4	67	47	15	37	67	5704	68	1	4	54	25	45	68	50.6143802740405845952	19.21106516871227754	40.8259608597983643108	64.9668581745424660312
5.0.14.0	win	042619	22:08:26	006	1	game	3	iti	380	1	96	96	4	0	2000	553	4	1	4	68	47	15	37	68	5704	68	1	4	54	25	45	68	50.6143802740405845952	19.21106516871227754	40.8259608597983643108	64.9668581745424660312
5.0.14.0	win	042619	22:08:26	006	1	game	3	selection	381	1	97	97	4	slot3	1180	1180	3	2	4	68	47	15	37	68	5739	35	2	4	48	22	35	60	48.793163895721285428	16.8538369165876922295	38.4517007871659828311	63.9203855941350198577
5.0.14.0	win	042619	22:08:26	006	1	game	3	iti	384	1	97	97	4	0	2000	1180	3	2	4	68	47	15	35	68	5739	35	2	4	48	22	35	60	48.793163895721285428	16.8538369165876922295	38.4517007871659828311	63.9203855941350198577
5.0.14.0	win	042619	22:08:26	006	1	game	3	selection	385	1	98	98	4	slot4	442	442	4	1	4	68	47	15	35	68	5797	58	1	4	45	18	43	58	50.9691448179885995273	17.8682718946592835607	38.2843104443411235138	62.9867687273331142706
5.0.14.0	win	042619	22:08:26	006	1	game	3	iti	388	1	98	98	4	0	2000	442	4	1	4	58	47	15	35	58	5797	58	1	4	45	18	43	58	50.9691448179885995273	17.8682718946592835607	38.2843104443411235138	62.9867687273331142706
5.0.14.0	win	042619	22:08:26	006	1	game	3	selection	389	1	99	99	4	slot4	387	387	4	1	4	58	47	15	35	58	5862	65	1	4	57	27	36	65	54.6601859384223516258	19.7019079758495934129	36.112557442678514974	67.0643142800105351853
5.0.14.0	win	042619	22:08:26	006	1	game	3	iti	392	1	99	99	4	0	2000	387	4	1	4	65	47	15	35	65	5862	65	1	4	57	27	36	65	54.6601859384223516258	19.7019079758495934129	36.112557442678514974	67.0643142800105351853
5.0.14.0	win	042619	22:08:26	006	1	game	3	selection	393	1	100	100	4	slot4	474	474	4	1	4	65	47	15	35	65	5933	71	1	4	55	19	33	71	55.4311171045428707771	18.5679554377618210026	30.7498239378831286217	67.0437333980762133478
5.0.14.0	win	042619	22:08:26	006	1	game	3	iti	396	1	100	100	4	0	2000	474	4	1	4	71	47	15	35	71	5933	71	1	4	55	19	33	71	55.4311171045428707771	18.5679554377618210026	30.7498239378831286217	67.0437333980762133478
5.0.14.0	win	042619	22:08:26	006	1	game	3	selection	397	1	101	101	4	slot4	409	409	4	1	4	71	47	15	35	71	5996	63	1	4	55	24	36	63	56.3938838623583222898	19.1672886985328183584	34.6153222690955999497	67.7637499444458342168
5.0.14.0	win	042619	22:08:26	006	1	game	3	iti	400	1	101	101	4	0	2000	409	4	1	4	63	47	15	35	63	5996	63	1	4	55	24	36	63	56.3938838623583222898	19.1672886985328183584	34.6153222690955999497	67.7637499444458342168
5.0.14.0	win	042619	22:08:26	006	1	game	3	selection	401	1	102	102	4	slot4	624	624	4	1	4	63	47	15	35	63	6063	67	1	4	58	24	33	67	55.1337581783038288563	17.2566087809807982012	37.024610834360736078	63.1681481624276131015
5.0.14.0	win	042619	22:08:26	006	1	game	3	iti	404	1	102	102	4	0	2000	624	4	1	4	67	47	15	35	67	6063	67	1	4	58	24	33	67	55.1337581783038288563	17.2566087809807982012	37.024610834360736078	63.1681481624276131015
5.0.14.0	win	042619	22:08:26	006	1	game	3	selection	405	1	103	103	4	slot4	609	609	4	1	4	67	47	15	35	67	6130	67	1	4	56	14	29	67	57.1812587749646965563	21.8331670092868392885	35.5198147289987673503	65.3494966929991818461
5.0.14.0	win	042619	22:08:26	006	1	game	3	iti	408	1	103	103	4	0	2000	609	4	1	4	67	47	15	35	67	6130	67	1	4	56	14	29	67	57.1812587749646965563	21.8331670092868392885	35.5198147289987673503	65.3494966929991818461
5.0.14.0	win	042619	22:08:26	006	1	game	3	selection	409	1	104	104	4	slot4	460	460	4	1	4	67	47	15	35	67	6195	65	1	4	53	23	41	65	52.6171861365046495962	23.0593828426183939939	38.7193242548377654089	67.3786221132675677836
5.0.14.0	win	042619	22:08:26	006	1	game	3	iti	412	1	104	104	4	0	2000	460	4	1	4	65	47	15	35	65	6195	65	1	4	53	23	41	65	52.6171861365046495962	23.0593828426183939939	38.7193242548377654089	67.3786221132675677836
5.0.14.0	win	042619	22:08:26	006	1	game	3	selection	413	1	105	105	4	slot4	574	574	4	1	4	65	47	15	35	65	6261	66	1	4	53	24	38	66	53.2078141303403882034	24.4615616768262462699	39.800953789910849423	68.6217125931624707391
5.0.14.0	win	042619	22:08:26	006	1	game	3	iti	416	1	105	105	4	0	2000	574	4	1	4	66	47	15	35	66	6261	66	1	4	53	24	38	66	53.2078141303403882034	24.4615616768262462699	39.800953789910849423	68.6217125931624707391
5.0.14.0	win	042619	22:08:26	006	1	game	3	selection	417	1	106	106	4	slot4	496	496	4	1	4	66	47	15	35	66	6319	58	2	1	60	25	47	58	53.1963913060900495111	29.5979114753288961026	46.9007398767853658228	66.4712589630309622635
5.0.14.0	win	042619	22:08:26	006	1	game	3	iti	420	1	106	106	4	0	2000	496	4	1	4	58	47	15	35	58	6319	58	2	1	60	25	47	58	53.1963913060900495111	29.5979114753288961026	46.9007398767853658228	66.4712589630309622635
5.0.14.0	win	042619	22:08:26	006	1	game	3	selection	421	1	107	107	4	slot4	495	495	4	1	4	58	47	15	35	58	6385	66	1	4	50	30	51	66	51.092618790875825141	30.7388433965296954398	48.4222628611879599703	62.1434385734133130086
5.0.14.0	win	042619	22:08:26	006	1	game	3	iti	424	1	107	107	4	0	2000	495	4	1	4	66	47	15	35	66	6385	66	1	4	50	30	51	66	51.092618790875825141	30.7388433965296954398	48.4222628611879599703	62.1434385734133130086
5.0.14.0	win	042619	22:08:26	006	1	game	3	selection	425	1	108	108	4	slot4	479	479	4	1	4	66	47	15	35	66	6456	71	1	4	47	28	53	71	48.9693362401610698953	30.7071367648258473082	49.9830277495401489318	67.0184897060061928187
5.0.14.0	win	042619	22:08:26	006	1	game	3	iti	428	1	108	108	4	0	2000	479	4	1	4	71	47	15	35	71	6456	71	1	4	47	28	53	71	48.9693362401610698953	30.7071367648258473082	49.9830277495401489318	67.0184897060061928187
5.0.14.0	win	042619	22:08:26	006	1	game	3	selection	429	1	109	109	4	slot4	563	563	4	1	4	71	47	15	35	71	6519	63	1	4	46	22	45	63	51.0209243484649448419	27.8464234910011718682	49.1313557425094629139	65.8175392826913991939
5.0.14.0	win	042619	22:08:26	006	1	game	3	iti	432	1	109	109	4	0	2000	563	4	1	4	63	47	15	35	63	6519	63	1	4	46	22	45	63	51.0209243484649448419	27.8464234910011718682	49.1313557425094629139	65.8175392826913991939
5.0.14.0	win	042619	22:08:26	006	1	game	3	selection	433	1	110	110	4	slot4	665	665	4	1	4	63	47	15	35	63	6575	56	1	4	54	27	53	56	49.455491264452909661	28.8228193181624305907	49.0001286906917457031	58.5316135397826826647
5.0.14.0	win	042619	22:08:26	006	1	game	3	iti	436	1	110	110	4	0	2000	665	4	1	4	56	47	15	35	56	6575	56	1	4	54	27	53	56	49.455491264452909661	28.8228193181624305907	49.0001286906917457031	58.5316135397826826647
5.0.14.0	win	042619	22:08:26	006	1	game	3	selection	437	1	111	111	4	slot4	648	648	4	1	4	56	47	15	35	56	6636	61	1	4	52	32	43	61	53.2969308934713907888	34.5111327400341707516	45.5635672692999094124	59.3456499407631881127
5.0.14.0	win	042619	22:08:26	006	1	game	3	iti	440	1	111	111	4	0	2000	648	4	1	4	61	47	15	35	61	6636	61	1	4	52	32	43	61	53.2969308934713907888	34.5111327400341707516	45.5635672692999094124	59.3456499407631881127
5.0.14.0	win	042619	22:08:26	006	1	game	3	selection	441	1	112	112	4	slot4	464	464	4	1	4	61	47	15	35	61	6694	58	1	4	53	45	57	58	51.2501905317348445124	36.7535155612736303965	47.856147264769944627	61.6053262374120791378
5.0.14.0	win	042619	22:08:26	006	1	game	3	iti	444	1	112	112	4	0	2000	464	4	1	4	58	47	15	35	58	6694	58	1	4	53	45	57	58	51.2501905317348445124	36.7535155612736303965	47.856147264769944627	61.6053262374120791378
5.0.14.0	win	042619	22:08:26	006	1	game	3	selection	445	1	113	113	4	slot1	1488	1488	1	2	4	58	47	15	35	58	6751	57	1	1	57	35	47	54	50.035591461971243632	32.7414513122542274459	51.7483930048935363288	53.9792133165814931317
5.0.14.0	win	042619	22:08:26	006	1	game	3	iti	448	1	113	113	4	0	2000	1488	1	2	4	58	57	15	35	58	6751	57	1	1	57	35	47	54	50.035591461971243632	32.7414513122542274459	51.7483930048935363288	53.9792133165814931317
5.0.14.0	win	042619	22:08:26	006	1	game	3	selection	449	1	114	114	4	slot3	999	999	3	2	4	58	57	15	35	58	6804	53	2	4	46	35	53	60	50.1790410776615161126	31.7232409301667850343	54.0408912057018895325	57.242647456442426801
5.0.14.0	win	042619	22:08:26	006	1	game	3	iti	452	1	114	114	4	0	2000	999	3	2	4	58	57	15	53	58	6804	53	2	4	46	35	53	60	50.1790410776615161126	31.7232409301667850343	54.0408912057018895325	57.242647456442426801
5.0.14.0	win	042619	22:08:26	006	1	game	3	selection	453	1	115	115	4	slot4	486	486	4	1	4	58	57	15	53	58	6869	65	1	4	49	25	59	65	53.2831018456503429093	29.1793932567837543957	54.8041545808697421194	63.8691534976533787926
5.0.14.0	win	042619	22:08:26	006	1	game	3	iti	456	1	115	115	4	0	2000	486	4	1	4	65	57	15	53	65	6869	65	1	4	49	25	59	65	53.2831018456503429093	29.1793932567837543957	54.8041545808697421194	63.8691534976533787926
5.0.14.0	win	042619	22:08:26	006	1	game	3	selection	457	1	116	116	4	slot4	804	804	4	1	4	65	57	15	53	65	6935	66	1	4	57	27	53	66	56.3399611399257267408	30.795781278374896317	58.4844886801564314283	64.1629210148146569281
5.0.14.0	win	042619	22:08:26	006	1	game	3	iti	460	1	116	116	4	0	2000	804	4	1	4	66	57	15	53	66	6935	66	1	4	57	27	53	66	56.3399611399257267408	30.795781278374896317	58.4844886801564314283	64.1629210148146569281
5.0.14.0	win	042619	22:08:26	006	1	game	3	selection	461	1	117	117	4	slot2	387	387	2	2	4	66	57	15	53	66	6971	36	2	4	52	36	60	73	54.2869492382174030354	33.5597379440968239805	62.8365056337054426194	62.4067706120622602839
5.0.14.0	win	042619	22:08:26	006	1	game	3	iti	464	1	117	117	4	0	2000	387	2	2	4	66	57	36	53	66	6971	36	2	4	52	36	60	73	54.2869492382174030354	33.5597379440968239805	62.8365056337054426194	62.4067706120622602839
5.0.14.0	win	042619	22:08:26	006	1	game	3	selection	465	1	118	118	4	slot4	788	788	4	1	4	66	57	36	53	66	7032	61	2	3	54	37	64	61	52.5647499612875748198	32.0486598436983101124	61.3573416038144472395	55.8107449088151099659
5.0.14.0	win	042619	22:08:26	006	1	game	3	iti	468	1	118	118	4	0	2000	788	4	1	4	61	57	36	53	61	7032	61	2	3	54	37	64	61	52.5647499612875748198	32.0486598436983101124	61.3573416038144472395	55.8107449088151099659
5.0.14.0	win	042619	22:08:26	006	1	game	3	selection	469	1	119	119	4	slot1	1069	1069	1	2	4	61	57	36	53	61	7089	57	1	1	57	33	55	56	55.4360476052221358145	33.2571821881796125808	60.6831432886271073812	57.5046649747285130161
5.0.14.0	win	042619	22:08:26	006	1	game	3	iti	472	1	119	119	4	0	2000	1069	1	2	4	61	57	36	53	61	7089	57	1	1	57	33	55	56	55.4360476052221358145	33.2571821881796125808	60.6831432886271073812	57.5046649747285130161
5.0.14.0	win	042619	22:08:26	006	1	game	3	selection	473	1	120	120	4	slot4	680	680	4	1	4	61	57	36	53	61	7149	60	2	3	56	28	66	60	53.0309043228074443732	31.7803454792400579265	60.3534895479175617083	56.120121371900332008
5.0.14.0	win	042619	22:08:26	006	1	game	3	iti	476	1	120	120	4	0	2000	680	4	1	4	60	57	36	53	60	7149	60	2	3	56	28	66	60	53.0309043228074443732	31.7803454792400579265	60.3534895479175617083	56.120121371900332008
5.0.14.0	win	042619	22:08:26	006	1	game	3	selection	477	1	121	121	4	slot4	553	553	4	1	4	60	57	36	53	60	7205	56	2	1	62	33	51	56	55.0121722536692914218	33.490355280161935525	57.5462633821956970337	56.3738326381629590855
5.0.14.0	win	042619	22:08:26	006	1	game	3	iti	480	1	121	121	4	0	2000	553	4	1	1	57	57	36	53	56	7205	56	2	1	62	33	51	56	55.0121722536692914218	33.490355280161935525	57.5462633821956970337	56.3738326381629590855
5.0.14.0	win	042619	22:08:26	006	1	game	3	selection	481	1	122	122	4	slot1	364	364	1	1	1	57	57	36	53	56	7259	54	2	4	54	24	58	62	50.6102329896603890802	30.8695928651403157517	61.2539600075510790589	59.3203278365338135814
5.0.14.0	win	042619	22:08:26	006	1	game	3	iti	484	1	122	122	4	0	2000	364	1	1	4	56	54	36	53	56	7259	54	2	4	54	24	58	62	50.6102329896603890802	30.8695928651403157517	61.2539600075510790589	59.3203278365338135814
5.0.14.0	win	042619	22:08:26	006	1	game	3	selection	485	1	123	123	4	slot1	411	411	1	2	4	56	54	36	53	56	7313	54	2	4	54	32	56	62	54.1494072832759769653	34.485130127004559597	54.8738223609347457455	62.022154069192893644
5.0.14.0	win	042619	22:08:26	006	1	game	3	iti	488	1	123	123	4	0	2000	411	1	2	4	56	54	36	53	56	7313	54	2	4	54	32	56	62	54.1494072832759769653	34.485130127004559597	54.8738223609347457455	62.022154069192893644
5.0.14.0	win	042619	22:08:26	006	1	game	3	selection	489	1	124	124	4	slot4	435	435	4	1	4	56	54	36	53	56	7381	68	1	4	49	33	56	68	51.5972669144815725417	34.1795501977734659249	55.9819764829272301654	65.0446535620486798734
5.0.14.0	win	042619	22:08:26	006	1	game	3	iti	492	1	124	124	4	0	2000	435	4	1	4	68	54	36	53	68	7381	68	1	4	49	33	56	68	51.5972669144815725417	34.1795501977734659249	55.9819764829272301654	65.0446535620486798734
5.0.14.0	win	042619	22:08:26	006	1	game	3	selection	493	1	125	125	4	slot4	455	455	4	1	4	68	54	36	53	68	7449	68	1	4	61	38	57	68	55.7674985411915784539	36.7398278924468186801	54.7041938530644529237	64.6239022965288398836
5.0.14.0	win	042619	22:08:26	006	1	game	3	iti	496	1	125	125	4	0	2000	455	4	1	4	68	54	36	53	68	7449	68	1	4	61	38	57	68	55.7674985411915784539	36.7398278924468186801	54.7041938530644529237	64.6239022965288398836
5.0.14.0	win	042619	22:08:26	006	1	game	3	selection	497	1	126	126	4	slot4	569	569	4	1	4	68	54	36	53	68	7510	61	1	4	49	40	47	61	53.0504342871051122188	35.4010858289089114237	54.6307271115354780022	60.8845683672457482771
5.0.14.0	win	042619	22:08:26	006	1	game	3	iti	500	1	126	126	4	0	2000	569	4	1	4	61	54	36	53	61	7510	61	1	4	49	40	47	61	53.0504342871051122188	35.4010858289089114237	54.6307271115354780022	60.8845683672457482771
5.0.14.0	win	042619	22:08:26	006	1	game	3	selection	501	1	127	127	4	slot4	529	529	4	1	4	61	54	36	53	61	7580	70	1	4	56	44	63	70	50.4048619371371486864	35.8136802522601200849	56.7920368560588073592	60.686726397747257522
5.0.14.0	win	042619	22:08:26	006	1	game	3	iti	504	1	127	127	4	0	2000	529	4	1	4	70	54	36	53	70	7580	70	1	4	56	44	63	70	50.4048619371371486864	35.8136802522601200849	56.7920368560588073592	60.686726397747257522
5.0.14.0	win	042619	22:08:26	006	1	game	3	selection	505	1	128	128	4	slot4	600	600	4	1	4	70	54	36	53	70	7638	58	1	4	49	30	57	58	55.5888778920407844453	34.5925792100089282144	54.0844763556599517074	60.4863571051904074238
5.0.14.0	win	042619	22:08:26	006	1	game	3	iti	508	1	128	128	4	0	2000	600	4	1	4	58	54	36	53	58	7638	58	1	4	49	30	57	58	55.5888778920407844453	34.5925792100089282144	54.0844763556599517074	60.4863571051904074238
5.0.14.0	win	042619	22:08:26	006	1	game	3	selection	509	1	129	129	4	slot4	817	817	4	1	4	58	54	36	53	58	7706	68	1	4	66	38	48	68	57.7532926367542245316	41.1059173795910695048	53.1918562645495569541	59.7490100795673697576
5.0.14.0	win	042619	22:08:26	006	1	game	3	iti	512	1	129	129	4	0	2000	817	4	1	4	68	54	36	53	68	7706	68	1	4	66	38	48	68	57.7532926367542245316	41.1059173795910695048	53.1918562645495569541	59.7490100795673697576
5.0.14.0	win	042619	22:08:26	006	1	game	3	selection	513	1	130	130	4	slot4	606	606	4	1	4	68	54	36	53	68	7771	65	1	4	52	33	50	65	51.6140193653430117138	39.5641354694158735583	53.3967881195451639087	57.7664767802454619527
5.0.14.0	win	042619	22:08:26	006	1	game	3	iti	516	1	130	130	4	0	2000	606	4	1	4	65	54	36	53	65	7771	65	1	4	52	33	50	65	51.6140193653430117138	39.5641354694158735583	53.3967881195451639087	57.7664767802454619527
5.0.14.0	win	042619	22:08:26	006	1	game	3	selection	517	1	131	131	4	slot4	695	695	4	1	4	65	54	36	53	65	7830	59	1	4	46	40	55	59	48.9811975565191914939	38.1168224277245215603	55.4703499262647810042	57.2041904047434073277
5.0.14.0	win	042619	22:08:26	006	1	game	3	iti	520	1	131	131	4	0	2000	695	4	1	4	59	54	36	53	59	7830	59	1	4	46	40	55	59	48.9811975565191914939	38.1168224277245215603	55.4703499262647810042	57.2041904047434073277
5.0.14.0	win	042619	22:08:26	006	1	game	3	selection	521	1	132	132	4	slot4	870	870	4	1	4	59	54	36	53	59	7889	59	1	4	55	42	54	59	48.0859246796021579939	34.6532143482960890424	53.4696760988410701998	59.3559020195438620249
5.0.14.0	win	042619	22:08:26	006	1	game	3	iti	524	1	132	132	4	0	2000	870	4	1	4	59	54	36	53	59	7889	59	1	4	55	42	54	59	48.0859246796021579939	34.6532143482960890424	53.4696760988410701998	59.3559020195438620249
5.0.14.0	win	042619	22:08:26	006	1	game	3	selection	525	1	133	133	4	slot1	859	859	1	2	4	59	54	36	53	59	7940	51	2	4	51	39	60	64	48.730590090798671099	38.1408334432031921324	55.053512117143498017	61.3337889581527377914
5.0.14.0	win	042619	22:08:26	006	1	game	3	iti	528	1	133	133	4	0	2000	859	1	2	4	59	51	36	53	59	7940	51	2	4	51	39	60	64	48.730590090798671099	38.1408334432031921324	55.053512117143498017	61.3337889581527377914
5.0.14.0	win	042619	22:08:26	006	1	game	3	selection	529	1	134	134	4	slot4	1021	1021	4	1	4	59	51	36	53	59	7997	57	1	4	53	30	51	57	49.1481228316730849315	38.7234313863375092524	52.7817037302584282088	62.7966377460471818495
5.0.14.0	win	042619	22:08:26	006	1	game	3	iti	532	1	134	134	4	0	2000	1021	4	1	4	57	51	36	53	57	7997	57	1	4	53	30	51	57	49.1481228316730849315	38.7234313863375092524	52.7817037302584282088	62.7966377460471818495
5.0.14.0	win	042619	22:08:26	006	1	game	3	selection	533	1	135	135	4	slot4	408	408	4	1	4	57	51	36	53	57	8058	61	1	4	51	39	50	61	50.3532002370229534449	38.4131289036365828338	54.222239905626189227	60.1268832651904148179
5.0.14.0	win	042619	22:08:26	006	1	game	3	iti	536	1	135	135	4	0	2000	408	4	1	4	61	51	36	53	61	8058	61	1	4	51	39	50	61	50.3532002370229534449	38.4131289036365828338	54.222239905626189227	60.1268832651904148179
5.0.14.0	win	042619	22:08:26	006	1	game	3	selection	537	1	136	136	4	slot4	475	475	4	1	4	61	51	36	53	61	8116	58	1	4	44	36	46	58	42.9820142311778639055	34.9065275767997960088	51.6452602075862898801	61.9641237907641482252
5.0.14.0	win	042619	22:08:26	006	1	game	3	iti	540	1	136	136	4	0	2000	475	4	1	4	58	51	36	53	58	8116	58	1	4	44	36	46	58	42.9820142311778639055	34.9065275767997960088	51.6452602075862898801	61.9641237907641482252
5.0.14.0	win	042619	22:08:26	006	1	game	3	selection	541	1	137	137	4	slot4	1047	1047	4	1	4	58	51	36	53	58	8179	63	1	4	42	46	55	63	39.9039146822346992849	36.7095757222866936331	53.1471254685460365863	65.6473146526738275952
5.0.14.0	win	042619	22:08:26	006	1	game	3	iti	544	1	137	137	4	0	2000	1047	4	1	4	63	51	36	53	63	8179	63	1	4	42	46	55	63	39.9039146822346992849	36.7095757222866936331	53.1471254685460365863	65.6473146526738275952
5.0.14.0	win	042619	22:08:26	006	1	game	3	selection	545	1	138	138	4	slot4	729	729	4	1	4	63	51	36	53	63	8242	63	1	4	35	39	54	63	38.0243798738556790795	34.9222978357070417132	54.9574957726865420682	65.8981247514571748525
5.0.14.0	win	042619	22:08:26	006	1	game	3	iti	548	1	138	138	4	0	2000	729	4	1	4	63	51	36	53	63	8242	63	1	4	35	39	54	63	38.0243798738556790795	34.9222978357070417132	54.9574957726865420682	65.8981247514571748525
5.0.14.0	win	042619	22:08:26	006	1	game	3	selection	549	1	139	139	4	slot4	618	618	4	1	4	63	51	36	53	63	8307	65	1	4	32	40	47	65	35.691596328796698856	39.8694895875136623431	52.5828766385082388979	67.6076225601116789221
5.0.14.0	win	042619	22:08:26	006	1	game	3	iti	552	1	139	139	4	0	2000	618	4	1	4	65	51	36	53	65	8307	65	1	4	32	40	47	65	35.691596328796698856	39.8694895875136623431	52.5828766385082388979	67.6076225601116789221
5.0.14.0	win	042619	22:08:26	006	1	game	3	selection	553	1	140	140	4	slot1	1049	1049	1	2	4	65	51	36	53	65	8361	54	2	4	54	37	59	70	44.1075041812315689072	38.9924259748105654921	56.373941489973837804	69.8024011460138922303
5.0.14.0	win	042619	22:08:26	006	1	game	3	iti	556	1	140	140	4	0	2000	1049	1	2	4	65	54	36	53	65	8361	54	2	4	54	37	59	70	44.1075041812315689072	38.9924259748105654921	56.373941489973837804	69.8024011460138922303
5.0.14.0	win	042619	22:08:26	006	1	game	3	selection	557	1	141	141	4	slot4	661	661	4	1	4	65	54	36	53	65	8439	78	1	4	51	47	53	78	47.9965416657428036729	44.3528670374634970131	55.7956272554903662808	71.1302866873839008122
5.0.14.0	win	042619	22:08:26	006	1	game	3	iti	560	1	141	141	4	0	2000	661	4	1	4	78	54	36	53	78	8439	78	1	4	51	47	53	78	47.9965416657428036729	44.3528670374634970131	55.7956272554903662808	71.1302866873839008122
5.0.14.0	win	042619	22:08:26	006	1	game	3	selection	561	1	142	142	4	slot4	543	543	4	1	4	78	54	36	53	78	8510	71	1	4	55	35	43	71	51.5991953194833499197	41.5248298321622897333	50.7570755591318061306	69.1972523593159820621
5.0.14.0	win	042619	22:08:26	006	1	game	3	iti	564	1	142	142	4	0	2000	543	4	1	4	71	54	36	53	71	8510	71	1	4	55	35	43	71	51.5991953194833499197	41.5248298321622897333	50.7570755591318061306	69.1972523593159820621
5.0.14.0	win	042619	22:08:26	006	1	game	3	selection	565	1	143	143	4	slot4	716	716	4	1	4	71	54	36	53	71	8581	71	1	4	56	25	55	71	49.2756473751606165479	36.5837905521619859428	57.8223320470762729428	70.7419995019067613384
5.0.14.0	win	042619	22:08:26	006	1	game	3	iti	568	1	143	143	4	0	2000	716	4	1	4	71	54	36	53	71	8581	71	1	4	56	25	55	71	49.2756473751606165479	36.5837905521619859428	57.8223320470762729428	70.7419995019067613384
5.0.14.0	win	042619	22:08:26	006	1	game	3	selection	569	1	144	144	4	slot4	1381	1381	4	1	4	71	54	36	53	71	8655	74	1	4	55	33	56	74	51.5967992032114040057	33.93778628858174784	56.0549253322159088953	72.8491509242550989711
5.0.14.0	win	042619	22:08:26	006	1	game	3	iti	572	1	144	144	4	0	2000	1381	4	1	4	74	54	36	53	74	8655	74	1	4	55	33	56	74	51.5967992032114040057	33.93778628858174784	56.0549253322159088953	72.8491509242550989711
5.0.14.0	win	042619	22:08:26	006	1	game	3	selection	573	1	145	145	4	slot4	580	580	4	1	4	74	54	36	53	74	8726	71	1	4	55	35	63	71	50.8063495119716463932	35.3203935499844732249	57.2639583568893826282	69.7592326351047802291
5.0.14.0	win	042619	22:08:26	006	1	game	3	iti	576	1	145	145	4	0	2000	580	4	1	4	71	54	36	53	71	8726	71	1	4	55	35	63	71	50.8063495119716463932	35.3203935499844732249	57.2639583568893826282	69.7592326351047802291
5.0.14.0	win	042619	22:08:26	006	1	game	3	selection	577	1	146	146	4	slot4	562	562	4	1	4	71	54	36	53	71	8798	72	1	4	57	35	59	72	49.9102465554369274514	33.2368162929607180445	54.3657558521546633301	74.3943189256956145528
5.0.14.0	win	042619	22:08:26	006	1	game	3	iti	580	1	146	146	4	0	2000	562	4	1	4	72	54	36	53	72	8798	72	1	4	57	35	59	72	49.9102465554369274514	33.2368162929607180445	54.3657558521546633301	74.3943189256956145528
5.0.14.0	win	042619	22:08:26	006	1	game	3	selection	581	1	147	147	4	slot4	628	628	4	1	4	72	54	36	53	72	8861	63	1	4	44	32	60	63	46.2812642000465856995	33.1914766917333921015	53.7318926309238449335	67.6974313387118229457
5.0.14.0	win	042619	22:08:26	006	1	game	3	iti	584	1	147	147	4	0	2000	628	4	1	4	63	54	36	53	63	8861	63	1	4	44	32	60	63	46.2812642000465856995	33.1914766917333921015	53.7318926309238449335	67.6974313387118229457
5.0.14.0	win	042619	22:08:26	006	1	game	3	selection	585	1	148	148	4	slot4	696	696	4	1	4	63	54	36	53	63	8920	59	1	4	42	36	55	59	43.3030220845556215181	33.8229463810361963283	55.2467435979755734365	64.2624820219711239133
5.0.14.0	win	042619	22:08:26	006	1	game	3	iti	588	1	148	148	4	0	2000	696	4	1	4	59	54	36	53	59	8920	59	1	4	42	36	55	59	43.3030220845556215181	33.8229463810361963283	55.2467435979755734365	64.2624820219711239133
5.0.14.0	win	042619	22:08:26	006	1	game	3	selection	589	1	149	149	4	slot4	422	422	4	1	4	59	54	36	53	59	8985	65	1	4	49	29	57	65	44.6044803623210412979	32.7616446562580705404	55.1654979122172335337	61.8928327719790516426
5.0.14.0	win	042619	22:08:26	006	1	game	3	iti	592	1	149	149	4	0	2000	422	4	1	4	65	54	36	53	65	8985	65	1	4	49	29	57	65	44.6044803623210412979	32.7616446562580705404	55.1654979122172335337	61.8928327719790516426
5.0.14.0	win	042619	22:08:26	006	1	game	3	selection	593	1	150	150	4	slot1	766	766	1	2	4	65	54	36	53	65	9030	45	2	4	45	26	50	60	44.9349549295526813353	33.8562004515038168506	47.7088961824413360091	59.0262287905836302571
5.0.14.0	win	042619	22:08:26	006	1	game	3	iti	596	1	150	150	4	0	2000	766	1	2	4	65	45	36	53	65	9030	45	2	4	45	26	50	60	44.9349549295526813353	33.8562004515038168506	47.7088961824413360091	59.0262287905836302571
