build	computer.platform	date	time	subject	group	blockcode	blocknum	trialcode	trialnum	values.countRounds	values.TotaltrialCount	values.trialCount_perRound	values.noResponseCount	response	latency	values.selectionRT	values.selectedSlot	values.choice	values.currenthighestSeenPayOffSlot	values.currenthighestSeenPayOff	values.lastSeenPayOff1	values.lastSeenPayOff2	values.lastSeenPayOff3	values.lastSeenPayOff4	values.total	values.currentPayoff	values.highestPayOffSelected	values.currentHighestPayOffSlot	values.payOff1	values.payOff2	values.payOff3	values.payOff4	values.mean1	values.mean2	values.mean3	values.mean4
5.0.14.0	win	042619	22:30:16	006	1	demo	1	selection	2	0	1	1	0	slot3	1254	1254	3	2	0	0	0	0	0	0	-22	-22	2	2	-31	-7	-22	-52	-34.1774349858959070048	-10.1324347403616545904	-19.3641875440099084926	-46.591875826656632853
5.0.14.0	win	042619	22:30:16	006	1	demo	1	iti	5	0	1	1	0	0	2000	1254	3	2	1	0	0	0	-22	0	-22	-22	2	2	-31	-7	-22	-52	-34.1774349858959070048	-10.1324347403616545904	-19.3641875440099084926	-46.591875826656632853
5.0.14.0	win	042619	22:30:16	006	1	demo	1	selection	6	0	2	2	0	slot2	894	894	2	2	1	0	0	0	-22	0	-35	-13	1	2	-32	-13	-20	-51	-32.8459459392034744951	-9.1714627805766575364	-21.1511162721963970057	-45.1864024133143544759
5.0.14.0	win	042619	22:30:16	006	1	demo	1	iti	9	0	2	2	0	0	2000	894	2	2	1	0	0	-13	-22	0	-35	-13	1	2	-32	-13	-20	-51	-32.8459459392034744951	-9.1714627805766575364	-21.1511162721963970057	-45.1864024133143544759
5.0.14.0	win	042619	22:30:16	006	1	demo	1	selection	10	0	3	3	0	slot1	903	903	1	1	1	0	0	-13	-22	0	-81	-46	2	2	-46	-7	-19	-53	-43.8639426359012674084	-7.7014777710570783142	-21.6439498954173785705	-49.895941990394270249
5.0.14.0	win	042619	22:30:16	006	1	demo	1	iti	13	0	3	3	0	0	2000	903	1	1	4	0	-46	-13	-22	0	-81	-46	2	2	-46	-7	-19	-53	-43.8639426359012674084	-7.7014777710570783142	-21.6439498954173785705	-49.895941990394270249
5.0.14.0	win	042619	22:30:16	006	1	demo	1	selection	14	0	4	4	0	slot4	893	893	4	1	4	0	-46	-13	-22	0	-132	-51	2	2	-41	-10	-22	-51	-44.6973370234839180171	-8.9149501317195660732	-25.0355337684138596899	-47.3456973494423039028
5.0.14.0	win	042619	22:30:16	006	1	demo	1	iti	17	0	4	4	0	0	2000	893	4	1	2	-13	-46	-13	-22	-51	-132	-51	2	2	-41	-10	-22	-51	-44.6973370234839180171	-8.9149501317195660732	-25.0355337684138596899	-47.3456973494423039028
5.0.14.0	win	042619	22:30:16	006	1	demo	1	selection	18	0	5	5	0	slot2	913	913	2	1	2	-13	-46	-13	-22	-51	-145	-13	1	2	-43	-13	-28	-51	-40.6158362611636789552	-12.1180901649051975255	-28.8092223458521914381	-49.6697690969324767707
5.0.14.0	win	042619	22:30:16	006	1	demo	1	iti	21	0	5	5	0	0	2000	913	2	1	2	-13	-46	-13	-22	-51	-145	-13	1	2	-43	-13	-28	-51	-40.6158362611636789552	-12.1180901649051975255	-28.8092223458521914381	-49.6697690969324767707
5.0.14.0	win	042619	22:30:16	006	1	game	3	selection	1	1	1	1	0	slot2	756	756	2	2	0	0	0	0	0	0	-58	-58	2	1	-16	-58	-83	-42	-20.4582059789628480928	-60.4452102140239588834	-77.3297265054786464589	-45.3310955387746759015
5.0.14.0	win	042619	22:30:16	006	1	game	3	iti	4	1	1	1	0	0	2000	756	2	2	1	0	0	-58	0	0	-58	-58	2	1	-16	-58	-83	-42	-20.4582059789628480928	-60.4452102140239588834	-77.3297265054786464589	-45.3310955387746759015
5.0.14.0	win	042619	22:30:16	006	1	game	3	selection	5	1	2	2	0	slot1	1055	1055	1	1	1	0	0	-58	0	0	-75	-17	1	1	-17	-60	-80	-43	-19.2218778502664022767	-65.7004272509147000392	-81.4294726158419166495	-46.3406795150774399872
5.0.14.0	win	042619	22:30:16	006	1	game	3	iti	8	1	2	2	0	0	2000	1055	1	1	3	0	-17	-58	0	0	-75	-17	1	1	-17	-60	-80	-43	-19.2218778502664022767	-65.7004272509147000392	-81.4294726158419166495	-46.3406795150774399872
5.0.14.0	win	042619	22:30:16	006	1	game	3	selection	9	1	3	3	0	slot4	799	799	4	2	3	0	-17	-58	0	0	-125	-50	2	1	-24	-57	-82	-50	-20.4736097281222342303	-59.5000711751753499357	-80.0810689652050058385	-48.3050548449599759238
5.0.14.0	win	042619	22:30:16	006	1	game	3	iti	12	1	3	3	0	0	2000	799	4	2	3	0	-17	-58	0	-50	-125	-50	2	1	-24	-57	-82	-50	-20.4736097281222342303	-59.5000711751753499357	-80.0810689652050058385	-48.3050548449599759238
5.0.14.0	win	042619	22:30:16	006	1	game	3	selection	13	1	4	4	0	slot3	902	902	3	1	3	0	-17	-58	0	-50	-208	-83	2	1	-18	-59	-83	-50	-17.5628151964205230229	-58.5535231038551273741	-82.7017150753119665296	-48.1298269930744098133
5.0.14.0	win	042619	22:30:16	006	1	game	3	iti	16	1	4	4	0	0	2000	902	3	1	1	-17	-17	-58	-83	-50	-208	-83	2	1	-18	-59	-83	-50	-17.5628151964205230229	-58.5535231038551273741	-82.7017150753119665296	-48.1298269930744098133
5.0.14.0	win	042619	22:30:16	006	1	game	3	selection	17	1	5	5	0	slot1	1152	1152	1	1	1	-17	-17	-58	-83	-50	-226	-18	1	1	-18	-62	-93	-43	-17.4367069284777329585	-56.8522468739887898437	-82.2007057301401999894	-44.2386647113031443723
5.0.14.0	win	042619	22:30:16	006	1	game	3	iti	20	1	5	5	0	0	2000	1152	1	1	1	-18	-18	-58	-83	-50	-226	-18	1	1	-18	-62	-93	-43	-17.4367069284777329585	-56.8522468739887898437	-82.2007057301401999894	-44.2386647113031443723
5.0.14.0	win	042619	22:30:16	006	1	game	3	selection	21	1	6	6	0	slot1	594	594	1	1	1	-18	-18	-58	-83	-50	-249	-23	1	1	-23	-58	-83	-47	-23.2775960201089375801	-55.2244220064923538871	-83.3085368690222054511	-43.9578022963755472574
5.0.14.0	win	042619	22:30:16	006	1	game	3	iti	24	1	6	6	0	0	2000	594	1	1	1	-23	-23	-58	-83	-50	-249	-23	1	1	-23	-58	-83	-47	-23.2775960201089375801	-55.2244220064923538871	-83.3085368690222054511	-43.9578022963755472574
5.0.14.0	win	042619	22:30:16	006	1	game	3	selection	25	1	7	7	0	slot4	815	815	4	2	1	-23	-23	-58	-83	-50	-291	-42	2	1	-19	-49	-85	-42	-27.3355554829751739021	-49.6572414027009045867	-80.0060322346652412762	-45.4550218867240403142
5.0.14.0	win	042619	22:30:16	006	1	game	3	iti	28	1	7	7	0	0	2000	815	4	2	1	-23	-23	-58	-83	-42	-291	-42	2	1	-19	-49	-85	-42	-27.3355554829751739021	-49.6572414027009045867	-80.0060322346652412762	-45.4550218867240403142
5.0.14.0	win	042619	22:30:16	006	1	game	3	selection	29	1	8	8	0	slot3	572	572	3	2	1	-23	-23	-58	-83	-42	-363	-72	2	1	-28	-48	-72	-49	-27.6725033487810776478	-46.1159134785240070187	-77.6639265078058116387	-44.0789315709922036035
5.0.14.0	win	042619	22:30:16	006	1	game	3	iti	32	1	8	8	0	0	2000	572	3	2	1	-23	-23	-58	-72	-42	-363	-72	2	1	-28	-48	-72	-49	-27.6725033487810776478	-46.1159134785240070187	-77.6639265078058116387	-44.0789315709922036035
5.0.14.0	win	042619	22:30:16	006	1	game	3	selection	33	1	9	9	0	slot2	556	556	2	2	1	-23	-23	-58	-72	-42	-402	-39	2	1	-24	-39	-74	-40	-27.8898516795629340947	-45.9713332927914422044	-74.4909704975686537409	-42.0989676529980414443
5.0.14.0	win	042619	22:30:16	006	1	game	3	iti	36	1	9	9	0	0	2000	556	2	2	1	-23	-23	-39	-72	-42	-402	-39	2	1	-24	-39	-74	-40	-27.8898516795629340947	-45.9713332927914422044	-74.4909704975686537409	-42.0989676529980414443
5.0.14.0	win	042619	22:30:16	006	1	game	3	selection	37	1	10	10	0	slot1	601	601	1	1	1	-23	-23	-39	-72	-42	-432	-30	1	1	-30	-50	-77	-47	-29.6670130038661277183	-49.5869471168996227561	-75.3944784065847386501	-41.4584189593336347457
5.0.14.0	win	042619	22:30:16	006	1	game	3	iti	40	1	10	10	0	0	2000	601	1	1	1	-30	-30	-39	-72	-42	-432	-30	1	1	-30	-50	-77	-47	-29.6670130038661277183	-49.5869471168996227561	-75.3944784065847386501	-41.4584189593336347457
5.0.14.0	win	042619	22:30:16	006	1	game	3	selection	41	1	11	11	0	slot4	874	874	4	2	1	-30	-30	-39	-72	-42	-476	-44	2	1	-41	-48	-65	-44	-29.711820509117757183	-46.9681221717280479311	-70.9888432609020867403	-43.8149057420622796144
5.0.14.0	win	042619	22:30:16	006	1	game	3	iti	44	1	11	11	0	0	2000	874	4	2	1	-30	-30	-39	-72	-44	-476	-44	2	1	-41	-48	-65	-44	-29.711820509117757183	-46.9681221717280479311	-70.9888432609020867403	-43.8149057420622796144
5.0.14.0	win	042619	22:30:16	006	1	game	3	selection	45	1	12	12	0	slot1	419	419	1	1	1	-30	-30	-39	-72	-44	-503	-27	1	1	-27	-46	-66	-45	-27.3106266285675545191	-47.3802300390001391861	-69.7184795869634399423	-41.835878797756159031
5.0.14.0	win	042619	22:30:16	006	1	game	3	iti	48	1	12	12	0	0	2000	419	1	1	1	-27	-27	-39	-72	-44	-503	-27	1	1	-27	-46	-66	-45	-27.3106266285675545191	-47.3802300390001391861	-69.7184795869634399423	-41.835878797756159031
5.0.14.0	win	042619	22:30:16	006	1	game	3	selection	49	1	13	13	0	slot1	410	410	1	1	1	-27	-27	-39	-72	-44	-539	-36	1	1	-36	-43	-71	-46	-29.9140156989931647047	-48.4575972362287856754	-71.1827930891772524546	-40.8748626737704157108
5.0.14.0	win	042619	22:30:16	006	1	game	3	iti	52	1	13	13	0	0	2000	410	1	1	1	-36	-36	-39	-72	-44	-539	-36	1	1	-36	-43	-71	-46	-29.9140156989931647047	-48.4575972362287856754	-71.1827930891772524546	-40.8748626737704157108
5.0.14.0	win	042619	22:30:16	006	1	game	3	selection	53	1	14	14	0	slot4	854	854	4	2	1	-36	-36	-39	-72	-44	-582	-43	2	1	-34	-54	-70	-43	-31.4059764965087033772	-51.4281831821413248917	-70.4308255023577629572	-44.2934161770569687633
5.0.14.0	win	042619	22:30:16	006	1	game	3	iti	56	1	14	14	0	0	2000	854	4	2	1	-36	-36	-39	-72	-43	-582	-43	2	1	-34	-54	-70	-43	-31.4059764965087033772	-51.4281831821413248917	-70.4308255023577629572	-44.2934161770569687633
5.0.14.0	win	042619	22:30:16	006	1	game	3	selection	57	1	15	15	0	slot1	790	790	1	1	1	-36	-36	-39	-72	-43	-621	-39	2	4	-39	-46	-69	-38	-30.2237333759658639565	-50.6191773386211210095	-67.2473628958162379377	-43.7288342871322655014
5.0.14.0	win	042619	22:30:16	006	1	game	3	iti	60	1	15	15	0	0	2000	790	1	1	1	-39	-39	-39	-72	-43	-621	-39	2	4	-39	-46	-69	-38	-30.2237333759658639565	-50.6191773386211210095	-67.2473628958162379377	-43.7288342871322655014
5.0.14.0	win	042619	22:30:16	006	1	game	3	selection	61	1	16	16	0	slot1	342	342	1	1	1	-39	-39	-39	-72	-43	-648	-27	1	1	-27	-51	-72	-46	-30.4676681025035200889	-47.6642343967689043893	-67.500223827719580072	-40.9541093239279092586
5.0.14.0	win	042619	22:30:16	006	1	game	3	iti	64	1	16	16	0	0	2000	342	1	1	1	-27	-27	-39	-72	-43	-648	-27	1	1	-27	-51	-72	-46	-30.4676681025035200889	-47.6642343967689043893	-67.500223827719580072	-40.9541093239279092586
5.0.14.0	win	042619	22:30:16	006	1	game	3	selection	65	1	17	17	0	slot1	622	622	1	1	1	-27	-27	-39	-72	-43	-679	-31	1	1	-31	-42	-68	-41	-30.893866417968240512	-44.269406713161714606	-70.2767711620526966954	-37.7064994144059113523
5.0.14.0	win	042619	22:30:16	006	1	game	3	iti	68	1	17	17	0	0	2000	622	1	1	1	-31	-31	-39	-72	-43	-679	-31	1	1	-31	-42	-68	-41	-30.893866417968240512	-44.269406713161714606	-70.2767711620526966954	-37.7064994144059113523
5.0.14.0	win	042619	22:30:16	006	1	game	3	selection	69	1	18	18	0	slot1	524	524	1	1	1	-31	-31	-39	-72	-43	-701	-22	1	1	-22	-44	-74	-36	-29.1113346092803446652	-44.0069911282990275936	-70.6645020120677287423	-38.4757224056923234912
5.0.14.0	win	042619	22:30:16	006	1	game	3	iti	72	1	18	18	0	0	2000	524	1	1	1	-22	-22	-39	-72	-43	-701	-22	1	1	-22	-44	-74	-36	-29.1113346092803446652	-44.0069911282990275936	-70.6645020120677287423	-38.4757224056923234912
5.0.14.0	win	042619	22:30:16	006	1	game	3	selection	73	1	19	19	0	slot1	440	440	1	1	1	-22	-22	-39	-72	-43	-736	-35	1	1	-35	-44	-69	-38	-32.5979643082626040496	-50.3066741817981153417	-71.443368927448588579	-36.4406749348632885699
5.0.14.0	win	042619	22:30:16	006	1	game	3	iti	76	1	19	19	0	0	2000	440	1	1	1	-35	-35	-39	-72	-43	-736	-35	1	1	-35	-44	-69	-38	-32.5979643082626040496	-50.3066741817981153417	-71.443368927448588579	-36.4406749348632885699
5.0.14.0	win	042619	22:30:16	006	1	game	3	selection	77	1	20	20	0	slot1	589	589	1	1	1	-35	-35	-39	-72	-43	-767	-31	1	1	-31	-52	-71	-34	-35.3860624988680214642	-49.7827419774408213016	-68.7733488506932388873	-35.6020485890521882766
5.0.14.0	win	042619	22:30:16	006	1	game	3	iti	80	1	20	20	0	0	2000	589	1	1	1	-31	-31	-39	-72	-43	-767	-31	1	1	-31	-52	-71	-34	-35.3860624988680214642	-49.7827419774408213016	-68.7733488506932388873	-35.6020485890521882766
5.0.14.0	win	042619	22:30:16	006	1	game	3	selection	81	1	21	21	0	slot1	428	428	1	1	1	-31	-31	-39	-72	-43	-802	-35	2	4	-35	-53	-68	-34	-36.5519033478476202959	-49.0662969577142575872	-69.1363567243473369217	-35.5414042989249807647
5.0.14.0	win	042619	22:30:16	006	1	game	3	iti	84	1	21	21	0	0	2000	428	1	1	1	-35	-35	-39	-72	-43	-802	-35	2	4	-35	-53	-68	-34	-36.5519033478476202959	-49.0662969577142575872	-69.1363567243473369217	-35.5414042989249807647
5.0.14.0	win	042619	22:30:16	006	1	game	3	selection	85	1	22	22	0	slot1	462	462	1	1	1	-35	-35	-39	-72	-43	-841	-39	2	4	-39	-66	-71	-31	-36.0875171071825704416	-52.032101929452281297	-68.5829169737531998408	-33.8421232359110959464
5.0.14.0	win	042619	22:30:16	006	1	game	3	iti	88	1	22	22	0	0	2000	462	1	1	1	-39	-39	-39	-72	-43	-841	-39	2	4	-39	-66	-71	-31	-36.0875171071825704416	-52.032101929452281297	-68.5829169737531998408	-33.8421232359110959464
5.0.14.0	win	042619	22:30:16	006	1	game	3	selection	89	1	23	23	0	slot2	942	942	2	2	1	-39	-39	-39	-72	-43	-889	-48	2	4	-33	-48	-60	-32	-31.6898850236394764579	-53.9587551313506068595	-65.7784175068906620254	-32.5608271451163631127
5.0.14.0	win	042619	22:30:16	006	1	game	3	iti	92	1	23	23	0	0	2000	942	2	2	1	-39	-39	-48	-72	-43	-889	-48	2	4	-33	-48	-60	-32	-31.6898850236394764579	-53.9587551313506068595	-65.7784175068906620254	-32.5608271451163631127
5.0.14.0	win	042619	22:30:16	006	1	game	3	selection	93	1	24	24	0	slot3	824	824	3	2	1	-39	-39	-48	-72	-43	-956	-67	2	4	-32	-60	-67	-31	-28.0144700706713400962	-55.5625021385680852859	-66.7081006454495053504	-33.953557474590752463
5.0.14.0	win	042619	22:30:16	006	1	game	3	iti	96	1	24	24	0	0	2000	824	3	2	1	-39	-39	-48	-67	-43	-956	-67	2	4	-32	-60	-67	-31	-28.0144700706713400962	-55.5625021385680852859	-66.7081006454495053504	-33.953557474590752463
5.0.14.0	win	042619	22:30:16	006	1	game	3	selection	97	1	25	25	0	slot4	365	365	4	2	1	-39	-39	-48	-67	-43	-993	-37	2	1	-28	-57	-70	-37	-29.309720532266965165	-57.0862636395467148986	-70.6744715143843507121	-32.8361045897643819558
5.0.14.0	win	042619	22:30:16	006	1	game	3	iti	100	1	25	25	0	0	2000	365	4	2	4	-37	-39	-48	-67	-37	-993	-37	2	1	-28	-57	-70	-37	-29.309720532266965165	-57.0862636395467148986	-70.6744715143843507121	-32.8361045897643819558
5.0.14.0	win	042619	22:30:16	006	1	game	3	selection	101	1	26	26	0	slot4	481	481	4	1	4	-37	-39	-48	-67	-37	-1031	-38	2	1	-29	-57	-72	-38	-28.5781287311037459631	-58.5154302169832405411	-70.8451063124671236437	-33.5337278370818552276
5.0.14.0	win	042619	22:30:16	006	1	game	3	iti	104	1	26	26	0	0	2000	481	4	1	4	-38	-39	-48	-67	-38	-1031	-38	2	1	-29	-57	-72	-38	-28.5781287311037459631	-58.5154302169832405411	-70.8451063124671236437	-33.5337278370818552276
5.0.14.0	win	042619	22:30:16	006	1	game	3	selection	105	1	27	27	0	slot1	546	546	1	2	4	-38	-39	-48	-67	-38	-1056	-25	1	1	-25	-62	-63	-38	-30.1327703224593506093	-57.0738490812087135851	-65.684668326610733402	-33.5456986803352990023
5.0.14.0	win	042619	22:30:16	006	1	game	3	iti	108	1	27	27	0	0	2000	546	1	2	1	-25	-25	-48	-67	-38	-1056	-25	1	1	-25	-62	-63	-38	-30.1327703224593506093	-57.0738490812087135851	-65.684668326610733402	-33.5456986803352990023
5.0.14.0	win	042619	22:30:16	006	1	game	3	selection	109	1	28	28	0	slot1	619	619	1	1	1	-25	-25	-48	-67	-38	-1083	-27	1	1	-27	-55	-53	-33	-25.4785639703687749602	-57.3032710561159674967	-63.1009359095819064578	-34.1293126813529923425
5.0.14.0	win	042619	22:30:16	006	1	game	3	iti	112	1	28	28	0	0	2000	619	1	1	1	-27	-27	-48	-67	-38	-1083	-27	1	1	-27	-55	-53	-33	-25.4785639703687749602	-57.3032710561159674967	-63.1009359095819064578	-34.1293126813529923425
5.0.14.0	win	042619	22:30:16	006	1	game	3	selection	113	1	29	29	0	slot1	385	385	1	1	1	-27	-27	-48	-67	-38	-1113	-30	2	4	-30	-49	-73	-28	-27.3831227680583246809	-55.0715403474003935003	-66.8731882058464606189	-33.6195328372776316428
5.0.14.0	win	042619	22:30:16	006	1	game	3	iti	116	1	29	29	0	0	2000	385	1	1	1	-30	-30	-48	-67	-38	-1113	-30	2	4	-30	-49	-73	-28	-27.3831227680583246809	-55.0715403474003935003	-66.8731882058464606189	-33.6195328372776316428
5.0.14.0	win	042619	22:30:16	006	1	game	3	selection	117	1	30	30	0	slot1	422	422	1	1	1	-30	-30	-48	-67	-38	-1139	-26	1	1	-26	-60	-67	-38	-30.0053886958642443972	-52.1495683059209440557	-64.5497996467811390175	-32.6628717240451393877
5.0.14.0	win	042619	22:30:16	006	1	game	3	iti	120	1	30	30	0	0	2000	422	1	1	1	-26	-26	-48	-67	-38	-1139	-26	1	1	-26	-60	-67	-38	-30.0053886958642443972	-52.1495683059209440557	-64.5497996467811390175	-32.6628717240451393877
5.0.14.0	win	042619	22:30:16	006	1	game	3	selection	121	1	31	31	0	slot1	628	628	1	1	1	-26	-26	-48	-67	-38	-1158	-19	1	1	-19	-52	-69	-35	-23.9340851129872831393	-51.967792272657341357	-64.2382263571234233268	-33.1987624743912945746
5.0.14.0	win	042619	22:30:16	006	1	game	3	iti	124	1	31	31	0	0	2000	628	1	1	1	-19	-19	-48	-67	-38	-1158	-19	1	1	-19	-52	-69	-35	-23.9340851129872831393	-51.967792272657341357	-64.2382263571234233268	-33.1987624743912945746
5.0.14.0	win	042619	22:30:16	006	1	game	3	selection	125	1	32	32	0	slot1	497	497	1	1	1	-19	-19	-48	-67	-38	-1179	-21	1	1	-21	-45	-62	-35	-19.7415959597527006508	-50.3278373302262167499	-59.840446578572390024	-36.8139354621679686375
5.0.14.0	win	042619	22:30:16	006	1	game	3	iti	128	1	32	32	0	0	2000	497	1	1	1	-21	-21	-48	-67	-38	-1179	-21	1	1	-21	-45	-62	-35	-19.7415959597527006508	-50.3278373302262167499	-59.840446578572390024	-36.8139354621679686375
5.0.14.0	win	042619	22:30:16	006	1	game	3	selection	129	1	33	33	0	slot1	402	402	1	1	1	-21	-21	-48	-67	-38	-1184	-5	1	1	-5	-56	-55	-33	-9.8111726116102815354	-53.7571902701694455118	-60.8352902479166246508	-34.3808729701637574294
5.0.14.0	win	042619	22:30:16	006	1	game	3	iti	132	1	33	33	0	0	2000	402	1	1	1	-5	-5	-48	-67	-38	-1184	-5	1	1	-5	-56	-55	-33	-9.8111726116102815354	-53.7571902701694455118	-60.8352902479166246508	-34.3808729701637574294
5.0.14.0	win	042619	22:30:16	006	1	game	3	selection	133	1	34	34	0	slot1	517	517	1	1	1	-5	-5	-48	-67	-38	-1194	-10	1	1	-10	-57	-55	-29	-8.4150837147639769853	-55.9975711636756372513	-59.0891865894330834408	-32.1735115804869593603
5.0.14.0	win	042619	22:30:16	006	1	game	3	iti	136	1	34	34	0	0	2000	517	1	1	1	-10	-10	-48	-67	-38	-1194	-10	1	1	-10	-57	-55	-29	-8.4150837147639769853	-55.9975711636756372513	-59.0891865894330834408	-32.1735115804869593603
5.0.14.0	win	042619	22:30:16	006	1	game	3	selection	137	1	35	35	0	slot1	442	442	1	1	1	-10	-10	-48	-67	-38	-1198	-4	1	1	-4	-52	-63	-43	-5.7582159729281849891	-55.9927639245121113731	-58.5192695757438201554	-35.6410385039730854828
5.0.14.0	win	042619	22:30:16	006	1	game	3	iti	140	1	35	35	0	0	2000	442	1	1	1	-4	-4	-48	-67	-38	-1198	-4	1	1	-4	-52	-63	-43	-5.7582159729281849891	-55.9927639245121113731	-58.5192695757438201554	-35.6410385039730854828
5.0.14.0	win	042619	22:30:16	006	1	game	3	selection	141	1	36	36	0	slot1	465	465	1	1	1	-4	-4	-48	-67	-38	-1205	-7	1	1	-7	-59	-60	-41	-7.5374925175926899001	-58.5644954303172369237	-61.6278548506808192542	-37.1098186051073781755
5.0.14.0	win	042619	22:30:16	006	1	game	3	iti	144	1	36	36	0	0	2000	465	1	1	1	-7	-7	-48	-67	-38	-1205	-7	1	1	-7	-59	-60	-41	-7.5374925175926899001	-58.5644954303172369237	-61.6278548506808192542	-37.1098186051073781755
5.0.14.0	win	042619	22:30:16	006	1	game	3	selection	145	1	37	37	0	slot1	676	676	1	1	1	-7	-7	-48	-67	-38	-1206	-1	1	1	-1	-56	-62	-32	-3.0137974514056544706	-57.1040691721645217171	-61.5022209107394886018	-36.0035097002807944477
5.0.14.0	win	042619	22:30:16	006	1	game	3	iti	148	1	37	37	0	0	2000	676	1	1	1	-1	-1	-48	-67	-38	-1206	-1	1	1	-1	-56	-62	-32	-3.0137974514056544706	-57.1040691721645217171	-61.5022209107394886018	-36.0035097002807944477
5.0.14.0	win	042619	22:30:16	006	1	game	3	selection	149	1	38	38	0	slot1	604	604	1	1	1	-1	-1	-48	-67	-38	-1211	-5	1	1	-5	-53	-50	-39	-4.6118293144133337691	-57.5989016914095657285	-58.5636206571215254257	-31.5187789327255565297
5.0.14.0	win	042619	22:30:16	006	1	game	3	iti	152	1	38	38	0	0	2000	604	1	1	1	-5	-5	-48	-67	-38	-1211	-5	1	1	-5	-53	-50	-39	-4.6118293144133337691	-57.5989016914095657285	-58.5636206571215254257	-31.5187789327255565297
5.0.14.0	win	042619	22:30:16	006	1	game	3	selection	153	1	39	39	0	slot1	571	571	1	1	1	-5	-5	-48	-67	-38	-1213	-2	1	1	-2	-60	-57	-30	-2.6477496667698043886	-59.9948168119711198187	-61.1929355313870146915	-32.3871925239959281839
5.0.14.0	win	042619	22:30:16	006	1	game	3	iti	156	1	39	39	0	0	2000	571	1	1	1	-2	-2	-48	-67	-38	-1213	-2	1	1	-2	-60	-57	-30	-2.6477496667698043886	-59.9948168119711198187	-61.1929355313870146915	-32.3871925239959281839
5.0.14.0	win	042619	22:30:16	006	1	game	3	selection	157	1	40	40	0	slot1	522	522	1	1	1	-2	-2	-48	-67	-38	-1217	-4	1	1	-4	-62	-57	-30	-2.8870872660456177172	-60.9285544771691576216	-56.9606551140480590334	-32.2422946107028423057
5.0.14.0	win	042619	22:30:16	006	1	game	3	iti	160	1	40	40	0	0	2000	522	1	1	1	-4	-4	-48	-67	-38	-1217	-4	1	1	-4	-62	-57	-30	-2.8870872660456177172	-60.9285544771691576216	-56.9606551140480590334	-32.2422946107028423057
5.0.14.0	win	042619	22:30:16	006	1	game	3	selection	161	1	41	41	0	slot1	462	462	1	1	1	-4	-4	-48	-67	-38	-1218	-1	1	1	-1	-49	-54	-28	-1.4462525023891230624	-56.2851787040173903165	-55.8489468712065217915	-29.444533823514785098
5.0.14.0	win	042619	22:30:16	006	1	game	3	iti	164	1	41	41	0	0	2000	462	1	1	1	-1	-1	-48	-67	-38	-1218	-1	1	1	-1	-49	-54	-28	-1.4462525023891230624	-56.2851787040173903165	-55.8489468712065217915	-29.444533823514785098
5.0.14.0	win	042619	22:30:16	006	1	game	3	selection	165	1	42	42	1	0	1500	1500	0	0	1	-1	-1	-48	-67	-38	-1218	0	0	1	-1	-62	-54	-24	-1.937555415128982661	-59.5912366008107383664	-52.0410359052654953871	-27.6700950992551675256
5.0.14.0	win	042619	22:30:16	006	1	game	3	iti	167	1	42	42	1	0	2000	1500	0	0	1	-1	-1	-48	-67	-38	-1218	0	0	1	-1	-62	-54	-24	-1.937555415128982661	-59.5912366008107383664	-52.0410359052654953871	-27.6700950992551675256
5.0.14.0	win	042619	22:30:16	006	1	game	3	selection	168	1	43	43	1	slot1	631	631	1	1	1	-1	-1	-48	-67	-38	-1219	-1	1	1	-1	-62	-49	-29	4.1167033791342024784	-61.2207284984673663075	-50.7405020015062149241	-28.7517901182608497379
5.0.14.0	win	042619	22:30:16	006	1	game	3	iti	171	1	43	43	1	0	2000	631	1	1	1	-1	-1	-48	-67	-38	-1219	-1	1	1	-1	-62	-49	-29	4.1167033791342024784	-61.2207284984673663075	-50.7405020015062149241	-28.7517901182608497379
5.0.14.0	win	042619	22:30:16	006	1	game	3	selection	172	1	44	44	1	slot1	1138	1138	1	1	1	-1	-1	-48	-67	-38	-1220	-1	1	1	-1	-58	-55	-40	5.1670163043746919485	-62.6089335932026003206	-50.9504934502058688395	-33.008634478437372195
5.0.14.0	win	042619	22:30:16	006	1	game	3	iti	175	1	44	44	1	0	2000	1138	1	1	1	-1	-1	-48	-67	-38	-1220	-1	1	1	-1	-58	-55	-40	5.1670163043746919485	-62.6089335932026003206	-50.9504934502058688395	-33.008634478437372195
5.0.14.0	win	042619	22:30:16	006	1	game	3	selection	176	1	45	45	1	slot1	567	567	1	1	1	-1	-1	-48	-67	-38	-1221	-1	1	1	-1	-63	-58	-39	5.5297983977873492734	-62.1052110134366870398	-49.1147809510836665936	-33.6105331821432926631
5.0.14.0	win	042619	22:30:16	006	1	game	3	iti	179	1	45	45	1	0	2000	567	1	1	1	-1	-1	-48	-67	-38	-1221	-1	1	1	-1	-63	-58	-39	5.5297983977873492734	-62.1052110134366870398	-49.1147809510836665936	-33.6105331821432926631
5.0.14.0	win	042619	22:30:16	006	1	game	3	selection	180	1	46	46	2	0	1500	1500	0	0	1	-1	-1	-48	-67	-38	-1221	0	0	1	-1	-57	-53	-26	5.0198449684043495722	-61.4650190560877334178	-50.6897937301132088805	-31.4450468359570329824
5.0.14.0	win	042619	22:30:16	006	1	game	3	iti	182	1	46	46	2	0	2000	1500	0	0	1	-1	-1	-48	-67	-38	-1221	0	0	1	-1	-57	-53	-26	5.0198449684043495722	-61.4650190560877334178	-50.6897937301132088805	-31.4450468359570329824
5.0.14.0	win	042619	22:30:16	006	1	game	3	selection	183	1	47	47	2	slot1	388	388	1	1	1	-1	-1	-48	-67	-38	-1222	-1	1	1	-1	-71	-51	-36	6.9068336936167824547	-64.0919609181780600693	-51.1102939985052699967	-36.860096879857650265
5.0.14.0	win	042619	22:30:16	006	1	game	3	iti	186	1	47	47	2	0	2000	388	1	1	1	-1	-1	-48	-67	-38	-1222	-1	1	1	-1	-71	-51	-36	6.9068336936167824547	-64.0919609181780600693	-51.1102939985052699967	-36.860096879857650265
5.0.14.0	win	042619	22:30:16	006	1	game	3	selection	187	1	48	48	2	slot1	801	801	1	1	1	-1	-1	-48	-67	-38	-1223	-1	1	1	-1	-64	-54	-40	4.8856393931780441875	-65.298622270780214194	-51.9955762941231398599	-38.1765071764645611552
5.0.14.0	win	042619	22:30:16	006	1	game	3	iti	190	1	48	48	2	0	2000	801	1	1	1	-1	-1	-48	-67	-38	-1223	-1	1	1	-1	-64	-54	-40	4.8856393931780441875	-65.298622270780214194	-51.9955762941231398599	-38.1765071764645611552
5.0.14.0	win	042619	22:30:16	006	1	game	3	selection	191	1	49	49	2	slot1	528	528	1	1	1	-1	-1	-48	-67	-38	-1226	-3	1	1	-3	-61	-59	-46	-1.2663602204112196503	-63.031281479274170465	-52.3550606254796306871	-43.0308800155388126996
5.0.14.0	win	042619	22:30:16	006	1	game	3	iti	194	1	49	49	2	0	2000	528	1	1	1	-3	-3	-48	-67	-38	-1226	-3	1	1	-3	-61	-59	-46	-1.2663602204112196503	-63.031281479274170465	-52.3550606254796306871	-43.0308800155388126996
5.0.14.0	win	042619	22:30:16	006	1	game	3	selection	195	1	50	50	2	slot1	571	571	1	1	1	-3	-3	-48	-67	-38	-1242	-16	1	1	-16	-66	-57	-39	-11.2384104383765315305	-63.8467023291605215718	-58.7361414611966807797	-39.8678917212487533561
5.0.14.0	win	042619	22:30:16	006	1	game	3	iti	198	1	50	50	2	0	2000	571	1	1	1	-16	-16	-48	-67	-38	-1242	-16	1	1	-16	-66	-57	-39	-11.2384104383765315305	-63.8467023291605215718	-58.7361414611966807797	-39.8678917212487533561
5.0.14.0	win	042619	22:30:16	006	1	game	3	selection	199	1	51	51	2	slot1	501	501	1	1	1	-16	-16	-48	-67	-38	-1253	-11	1	1	-11	-62	-56	-44	-8.3996301357013010147	-63.6458137750715735592	-60.2556709753314763134	-46.6242799859860284073
5.0.14.0	win	042619	22:30:16	006	1	game	3	iti	202	1	51	51	2	0	2000	501	1	1	1	-11	-11	-48	-67	-38	-1253	-11	1	1	-11	-62	-56	-44	-8.3996301357013010147	-63.6458137750715735592	-60.2556709753314763134	-46.6242799859860284073
5.0.14.0	win	042619	22:30:16	006	1	game	3	selection	203	1	52	52	2	slot4	863	863	4	2	1	-11	-11	-48	-67	-38	-1302	-49	2	1	-15	-67	-58	-49	-11.7061063429411120751	-64.8347307797338174851	-54.9453439441777433672	-47.7759362947744818939
5.0.14.0	win	042619	22:30:16	006	1	game	3	iti	206	1	52	52	2	0	2000	863	4	2	1	-11	-11	-48	-67	-49	-1302	-49	2	1	-15	-67	-58	-49	-11.7061063429411120751	-64.8347307797338174851	-54.9453439441777433672	-47.7759362947744818939
5.0.14.0	win	042619	22:30:16	006	1	game	3	selection	207	1	53	53	2	slot2	379	379	2	2	1	-11	-11	-48	-67	-49	-1376	-74	2	1	-1	-74	-59	-49	-8.6831149424762088529	-64.7121236586702650584	-58.2818078561532857407	-48.5517029237989490298
5.0.14.0	win	042619	22:30:16	006	1	game	3	iti	210	1	53	53	2	0	2000	379	2	2	1	-11	-11	-74	-67	-49	-1376	-74	2	1	-1	-74	-59	-49	-8.6831149424762088529	-64.7121236586702650584	-58.2818078561532857407	-48.5517029237989490298
5.0.14.0	win	042619	22:30:16	006	1	game	3	selection	211	1	54	54	2	slot3	512	512	3	2	1	-11	-11	-74	-67	-49	-1435	-59	2	1	-13	-63	-59	-46	-13.2556288739746488403	-62.4459699463557100785	-56.7786141041825729303	-46.1522827706286662419
5.0.14.0	win	042619	22:30:16	006	1	game	3	iti	214	1	54	54	2	0	2000	512	3	2	1	-11	-11	-74	-59	-49	-1435	-59	2	1	-13	-63	-59	-46	-13.2556288739746488403	-62.4459699463557100785	-56.7786141041825729303	-46.1522827706286662419
5.0.14.0	win	042619	22:30:16	006	1	game	3	selection	215	1	55	55	2	slot1	463	463	1	1	1	-11	-11	-74	-59	-49	-1445	-10	1	1	-10	-49	-52	-39	-12.4520287601925492282	-56.3635926604086208158	-58.3426056752144575057	-45.6507167024107047837
5.0.14.0	win	042619	22:30:16	006	1	game	3	iti	218	1	55	55	2	0	2000	463	1	1	1	-10	-10	-74	-59	-49	-1445	-10	1	1	-10	-49	-52	-39	-12.4520287601925492282	-56.3635926604086208158	-58.3426056752144575057	-45.6507167024107047837
5.0.14.0	win	042619	22:30:16	006	1	game	3	selection	219	1	56	56	2	slot1	506	506	1	1	1	-10	-10	-74	-59	-49	-1459	-14	1	1	-14	-54	-55	-48	-16.8960719308541698069	-54.6568000035524121927	-58.7174723467494459328	-48.9966078228524040128
5.0.14.0	win	042619	22:30:16	006	1	game	3	iti	222	1	56	56	2	0	2000	506	1	1	1	-14	-14	-74	-59	-49	-1459	-14	1	1	-14	-54	-55	-48	-16.8960719308541698069	-54.6568000035524121927	-58.7174723467494459328	-48.9966078228524040128
5.0.14.0	win	042619	22:30:16	006	1	game	3	selection	223	1	57	57	2	slot1	461	461	1	1	1	-14	-14	-74	-59	-49	-1477	-18	1	1	-18	-54	-58	-57	-20.5518397797587510922	-54.2765092074978952041	-57.6221060303077123876	-49.07600211859705297
5.0.14.0	win	042619	22:30:16	006	1	game	3	iti	226	1	57	57	2	0	2000	461	1	1	1	-18	-18	-74	-59	-49	-1477	-18	1	1	-18	-54	-58	-57	-20.5518397797587510922	-54.2765092074978952041	-57.6221060303077123876	-49.07600211859705297
5.0.14.0	win	042619	22:30:16	006	1	game	3	selection	227	1	58	58	2	slot1	986	986	1	1	1	-18	-18	-74	-59	-49	-1501	-24	1	1	-24	-60	-55	-54	-18.5346455627610602335	-58.0069296958870381786	-52.1764782048595350261	-50.404894855115998098
5.0.14.0	win	042619	22:30:16	006	1	game	3	iti	230	1	58	58	2	0	2000	986	1	1	1	-24	-24	-74	-59	-49	-1501	-24	1	1	-24	-60	-55	-54	-18.5346455627610602335	-58.0069296958870381786	-52.1764782048595350261	-50.404894855115998098
5.0.14.0	win	042619	22:30:16	006	1	game	3	selection	231	1	59	59	2	slot1	650	650	1	1	1	-24	-24	-74	-59	-49	-1527	-26	1	1	-26	-57	-48	-52	-22.2786943925303120295	-62.5641827032664679109	-54.1879114592414410367	-50.4002070402772588409
5.0.14.0	win	042619	22:30:16	006	1	game	3	iti	234	1	59	59	2	0	2000	650	1	1	1	-26	-26	-74	-59	-49	-1527	-26	1	1	-26	-57	-48	-52	-22.2786943925303120295	-62.5641827032664679109	-54.1879114592414410367	-50.4002070402772588409
5.0.14.0	win	042619	22:30:16	006	1	game	3	selection	235	1	60	60	2	slot1	490	490	1	1	1	-26	-26	-74	-59	-49	-1547	-20	1	1	-20	-55	-57	-47	-23.3150094750461356341	-59.6164212797659445187	-53.4948415039743636612	-48.4853466888066080287
5.0.14.0	win	042619	22:30:16	006	1	game	3	iti	238	1	60	60	2	0	2000	490	1	1	1	-20	-20	-74	-59	-49	-1547	-20	1	1	-20	-55	-57	-47	-23.3150094750461356341	-59.6164212797659445187	-53.4948415039743636612	-48.4853466888066080287
5.0.14.0	win	042619	22:30:16	006	1	game	3	selection	239	1	61	61	2	slot1	419	419	1	1	1	-20	-20	-74	-59	-49	-1567	-20	1	1	-20	-55	-58	-51	-20.0789793320805713961	-54.0986918553031159718	-57.1723760625896915144	-53.9997242726130295409
5.0.14.0	win	042619	22:30:16	006	1	game	3	iti	242	1	61	61	2	0	2000	419	1	1	1	-20	-20	-74	-59	-49	-1567	-20	1	1	-20	-55	-58	-51	-20.0789793320805713961	-54.0986918553031159718	-57.1723760625896915144	-53.9997242726130295409
5.0.14.0	win	042619	22:30:16	006	1	game	3	selection	243	1	62	62	2	slot1	594	594	1	1	1	-20	-20	-74	-59	-49	-1587	-20	1	1	-20	-60	-53	-55	-25.9803302202043440161	-57.9938698329172268586	-58.5239231724243396116	-56.1321650324045648972
5.0.14.0	win	042619	22:30:16	006	1	game	3	iti	246	1	62	62	2	0	2000	594	1	1	1	-20	-20	-74	-59	-49	-1587	-20	1	1	-20	-60	-53	-55	-25.9803302202043440161	-57.9938698329172268586	-58.5239231724243396116	-56.1321650324045648972
5.0.14.0	win	042619	22:30:16	006	1	game	3	selection	247	1	63	63	2	slot1	487	487	1	1	1	-20	-20	-74	-59	-49	-1616	-29	1	1	-29	-54	-66	-55	-28.6548488971934496305	-57.415238985891306811	-61.157253000928456288	-57.0880530043852729705
5.0.14.0	win	042619	22:30:16	006	1	game	3	iti	250	1	63	63	2	0	2000	487	1	1	1	-29	-29	-74	-59	-49	-1616	-29	1	1	-29	-54	-66	-55	-28.6548488971934496305	-57.415238985891306811	-61.157253000928456288	-57.0880530043852729705
5.0.14.0	win	042619	22:30:16	006	1	game	3	selection	251	1	64	64	2	slot1	477	477	1	1	1	-29	-29	-74	-59	-49	-1645	-29	1	1	-29	-62	-63	-61	-29.0435092286686327157	-55.9787783764682558285	-58.5282473803970333392	-58.175569625562012277
5.0.14.0	win	042619	22:30:16	006	1	game	3	iti	254	1	64	64	2	0	2000	477	1	1	1	-29	-29	-74	-59	-49	-1645	-29	1	1	-29	-62	-63	-61	-29.0435092286686327157	-55.9787783764682558285	-58.5282473803970333392	-58.175569625562012277
5.0.14.0	win	042619	22:30:16	006	1	game	3	selection	255	1	65	65	2	slot1	433	433	1	1	1	-29	-29	-74	-59	-49	-1671	-26	1	1	-26	-50	-57	-55	-30.2596337533752794968	-51.7921890184284166025	-59.1831756595292333145	-55.4068533588476341833
5.0.14.0	win	042619	22:30:16	006	1	game	3	iti	258	1	65	65	2	0	2000	433	1	1	1	-26	-26	-74	-59	-49	-1671	-26	1	1	-26	-50	-57	-55	-30.2596337533752794968	-51.7921890184284166025	-59.1831756595292333145	-55.4068533588476341833
5.0.14.0	win	042619	22:30:16	006	1	game	3	selection	259	1	66	66	2	slot1	461	461	1	1	1	-26	-26	-74	-59	-49	-1697	-26	1	1	-26	-54	-68	-56	-32.7057215638478027131	-52.497777378573630358	-65.2906134439850518447	-57.4975734071634079214
5.0.14.0	win	042619	22:30:16	006	1	game	3	iti	262	1	66	66	2	0	2000	461	1	1	1	-26	-26	-74	-59	-49	-1697	-26	1	1	-26	-54	-68	-56	-32.7057215638478027131	-52.497777378573630358	-65.2906134439850518447	-57.4975734071634079214
5.0.14.0	win	042619	22:30:16	006	1	game	3	selection	263	1	67	67	2	slot1	756	756	1	1	1	-26	-26	-74	-59	-49	-1725	-28	1	1	-28	-52	-69	-64	-31.6754176986278253025	-50.3650108462278325305	-68.4867858738350037129	-55.6337812115336802776
5.0.14.0	win	042619	22:30:16	006	1	game	3	iti	266	1	67	67	2	0	2000	756	1	1	1	-28	-28	-74	-59	-49	-1725	-28	1	1	-28	-52	-69	-64	-31.6754176986278253025	-50.3650108462278325305	-68.4867858738350037129	-55.6337812115336802776
5.0.14.0	win	042619	22:30:16	006	1	game	3	selection	267	1	68	68	2	slot1	591	591	1	1	1	-28	-28	-74	-59	-49	-1759	-34	1	1	-34	-52	-68	-59	-32.9671331694109284172	-50.9403664804072136008	-65.2974533056706434309	-53.9833405406481716682
5.0.14.0	win	042619	22:30:16	006	1	game	3	iti	270	1	68	68	2	0	2000	591	1	1	1	-34	-34	-74	-59	-49	-1759	-34	1	1	-34	-52	-68	-59	-32.9671331694109284172	-50.9403664804072136008	-65.2974533056706434309	-53.9833405406481716682
5.0.14.0	win	042619	22:30:16	006	1	game	3	selection	271	1	69	69	2	slot4	753	753	4	2	1	-34	-34	-74	-59	-49	-1812	-53	2	1	-32	-52	-72	-53	-30.0406095715491723297	-52.5449561656709605018	-66.6074326137331951259	-54.5757387210242654874
5.0.14.0	win	042619	22:30:16	006	1	game	3	iti	274	1	69	69	2	0	2000	753	4	2	1	-34	-34	-74	-59	-53	-1812	-53	2	1	-32	-52	-72	-53	-30.0406095715491723297	-52.5449561656709605018	-66.6074326137331951259	-54.5757387210242654874
5.0.14.0	win	042619	22:30:16	006	1	game	3	selection	275	1	70	70	2	slot3	369	369	3	2	1	-34	-34	-74	-59	-53	-1888	-76	2	1	-28	-56	-76	-58	-32.3160591503454739382	-54.4924256439778815775	-71.8973871602477601073	-60.366889030910201086
5.0.14.0	win	042619	22:30:16	006	1	game	3	iti	278	1	70	70	2	0	2000	369	3	2	1	-34	-34	-74	-76	-53	-1888	-76	2	1	-28	-56	-76	-58	-32.3160591503454739382	-54.4924256439778815775	-71.8973871602477601073	-60.366889030910201086
5.0.14.0	win	042619	22:30:16	006	1	game	3	selection	279	1	71	71	2	slot2	358	358	2	2	1	-34	-34	-74	-76	-53	-1945	-57	2	1	-34	-57	-77	-60	-33.4376475150973462291	-59.0810690416755903698	-71.5942077745807949896	-58.8016960605737537549
5.0.14.0	win	042619	22:30:16	006	1	game	3	iti	282	1	71	71	2	0	2000	358	2	2	1	-34	-34	-57	-76	-53	-1945	-57	2	1	-34	-57	-77	-60	-33.4376475150973462291	-59.0810690416755903698	-71.5942077745807949896	-58.8016960605737537549
5.0.14.0	win	042619	22:30:16	006	1	game	3	selection	283	1	72	72	2	slot1	355	355	1	1	1	-34	-34	-57	-76	-53	-1989	-44	1	1	-44	-63	-77	-59	-38.265740114832681229	-59.7697437177841521816	-76.2020916498079117218	-57.8564771126554404646
5.0.14.0	win	042619	22:30:16	006	1	game	3	iti	286	1	72	72	2	0	2000	355	1	1	1	-44	-44	-57	-76	-53	-1989	-44	1	1	-44	-63	-77	-59	-38.265740114832681229	-59.7697437177841521816	-76.2020916498079117218	-57.8564771126554404646
5.0.14.0	win	042619	22:30:16	006	1	game	3	selection	287	1	73	73	2	slot1	416	416	1	1	1	-44	-44	-57	-76	-53	-2018	-29	1	1	-29	-67	-80	-57	-37.8933101278318744676	-65.6109539151227210141	-79.1877718159395698194	-58.0113960778260064899
5.0.14.0	win	042619	22:30:16	006	1	game	3	iti	290	1	73	73	2	0	2000	416	1	1	1	-29	-29	-57	-76	-53	-2018	-29	1	1	-29	-67	-80	-57	-37.8933101278318744676	-65.6109539151227210141	-79.1877718159395698194	-58.0113960778260064899
5.0.14.0	win	042619	22:30:16	006	1	game	3	selection	291	1	74	74	2	slot1	426	426	1	1	1	-29	-29	-57	-76	-53	-2074	-56	1	1	-56	-60	-84	-58	-45.1614565251257431555	-62.0560450217607453283	-75.6745084249590576064	-57.518386531747367485
5.0.14.0	win	042619	22:30:16	006	1	game	3	iti	294	1	74	74	2	0	2000	426	1	1	4	-53	-56	-57	-76	-53	-2074	-56	1	1	-56	-60	-84	-58	-45.1614565251257431555	-62.0560450217607453283	-75.6745084249590576064	-57.518386531747367485
5.0.14.0	win	042619	22:30:16	006	1	game	3	selection	295	1	75	75	2	slot4	521	521	4	1	4	-53	-56	-57	-76	-53	-2134	-60	2	1	-48	-53	-66	-60	-44.2952110492009225595	-58.8016365097436022324	-74.6698272432316656477	-58.6475899270363427718
5.0.14.0	win	042619	22:30:16	006	1	game	3	iti	298	1	75	75	2	0	2000	521	4	1	1	-56	-56	-57	-76	-60	-2134	-60	2	1	-48	-53	-66	-60	-44.2952110492009225595	-58.8016365097436022324	-74.6698272432316656477	-58.6475899270363427718
5.0.14.0	win	042619	22:30:16	006	1	game	3	selection	299	1	76	76	2	slot2	596	596	2	2	1	-56	-56	-57	-76	-60	-2187	-53	2	1	-35	-53	-74	-56	-44.7697478134040309783	-52.4880141628066212434	-70.8990120377066688206	-55.8130184970709706249
5.0.14.0	win	042619	22:30:16	006	1	game	3	iti	302	1	76	76	2	0	2000	596	2	2	2	-53	-56	-53	-76	-60	-2187	-53	2	1	-35	-53	-74	-56	-44.7697478134040309783	-52.4880141628066212434	-70.8990120377066688206	-55.8130184970709706249
5.0.14.0	win	042619	22:30:16	006	1	game	3	selection	303	1	77	77	2	slot1	664	664	1	2	2	-53	-56	-53	-76	-60	-2225	-38	1	1	-38	-43	-70	-57	-42.5512801109377889475	-51.0145820629724653372	-68.2999942579971417445	-56.0042823071519393352
5.0.14.0	win	042619	22:30:16	006	1	game	3	iti	306	1	77	77	2	0	2000	664	1	2	1	-38	-38	-53	-76	-60	-2225	-38	1	1	-38	-43	-70	-57	-42.5512801109377889475	-51.0145820629724653372	-68.2999942579971417445	-56.0042823071519393352
5.0.14.0	win	042619	22:30:16	006	1	game	3	selection	307	1	78	78	2	slot1	505	505	1	1	1	-38	-38	-53	-76	-60	-2274	-49	1	1	-49	-58	-62	-54	-41.6860316106787820445	-53.0718124896195746487	-64.2965095039780720754	-54.1550464255473897879
5.0.14.0	win	042619	22:30:16	006	1	game	3	iti	310	1	78	78	2	0	2000	505	1	1	1	-49	-49	-53	-76	-60	-2274	-49	1	1	-49	-58	-62	-54	-41.6860316106787820445	-53.0718124896195746487	-64.2965095039780720754	-54.1550464255473897879
5.0.14.0	win	042619	22:30:16	006	1	game	3	selection	311	1	79	79	2	slot1	407	407	1	1	1	-49	-49	-53	-76	-60	-2308	-34	1	1	-34	-49	-64	-54	-38.4498598824134347751	-51.9353420062042445693	-66.8397707791470594429	-53.316081407722023755
5.0.14.0	win	042619	22:30:16	006	1	game	3	iti	314	1	79	79	2	0	2000	407	1	1	1	-34	-34	-53	-76	-60	-2308	-34	1	1	-34	-49	-64	-54	-38.4498598824134347751	-51.9353420062042445693	-66.8397707791470594429	-53.316081407722023755
5.0.14.0	win	042619	22:30:16	006	1	game	3	selection	315	1	80	80	2	slot1	595	595	1	1	1	-34	-34	-53	-76	-60	-2345	-37	1	1	-37	-51	-74	-53	-40.9114743891639989215	-52.9460875972614317675	-69.2905844884713530973	-53.784364781286598145
5.0.14.0	win	042619	22:30:16	006	1	game	3	iti	318	1	80	80	2	0	2000	595	1	1	1	-37	-37	-53	-76	-60	-2345	-37	1	1	-37	-51	-74	-53	-40.9114743891639989215	-52.9460875972614317675	-69.2905844884713530973	-53.784364781286598145
5.0.14.0	win	042619	22:30:16	006	1	game	3	selection	319	1	81	81	2	slot1	383	383	1	1	1	-37	-37	-53	-76	-60	-2383	-38	1	1	-38	-50	-69	-54	-38.5532339141177544661	-49.536510873459938864	-69.6305221254452391122	-53.1681319445902005327
5.0.14.0	win	042619	22:30:16	006	1	game	3	iti	322	1	81	81	2	0	2000	383	1	1	1	-38	-38	-53	-76	-60	-2383	-38	1	1	-38	-50	-69	-54	-38.5532339141177544661	-49.536510873459938864	-69.6305221254452391122	-53.1681319445902005327
5.0.14.0	win	042619	22:30:16	006	1	game	3	selection	323	1	82	82	2	slot1	454	454	1	1	1	-38	-38	-53	-76	-60	-2421	-38	1	1	-38	-49	-73	-61	-38.1955593259249539528	-46.9764793495011474533	-69.2901164122104091803	-54.9871983013615164282
5.0.14.0	win	042619	22:30:16	006	1	game	3	iti	326	1	82	82	2	0	2000	454	1	1	1	-38	-38	-53	-76	-60	-2421	-38	1	1	-38	-49	-73	-61	-38.1955593259249539528	-46.9764793495011474533	-69.2901164122104091803	-54.9871983013615164282
5.0.14.0	win	042619	22:30:16	006	1	game	3	selection	327	1	83	83	2	slot1	450	450	1	1	1	-38	-38	-53	-76	-60	-2457	-36	1	1	-36	-56	-69	-55	-38.6178003925049253553	-52.9779898923384564569	-71.2586737620352153044	-52.6323331059818642075
5.0.14.0	win	042619	22:30:16	006	1	game	3	iti	330	1	83	83	2	0	2000	450	1	1	1	-36	-36	-53	-76	-60	-2457	-36	1	1	-36	-56	-69	-55	-38.6178003925049253553	-52.9779898923384564569	-71.2586737620352153044	-52.6323331059818642075
5.0.14.0	win	042619	22:30:16	006	1	game	3	selection	331	1	84	84	2	slot1	996	996	1	1	1	-36	-36	-53	-76	-60	-2494	-37	1	1	-37	-49	-70	-43	-39.9175661153727077135	-51.0972116579756061583	-70.35504517063876051	-48.1148314587897161232
5.0.14.0	win	042619	22:30:16	006	1	game	3	iti	334	1	84	84	2	0	2000	996	1	1	1	-37	-37	-53	-76	-60	-2494	-37	1	1	-37	-49	-70	-43	-39.9175661153727077135	-51.0972116579756061583	-70.35504517063876051	-48.1148314587897161232
5.0.14.0	win	042619	22:30:16	006	1	game	3	selection	335	1	85	85	2	slot1	394	394	1	1	1	-37	-37	-53	-76	-60	-2535	-41	1	1	-41	-55	-70	-46	-42.4961713723393970099	-54.9148060648493725466	-69.8910775757732523061	-47.9197122694947736932
5.0.14.0	win	042619	22:30:16	006	1	game	3	iti	338	1	85	85	2	0	2000	394	1	1	1	-41	-41	-53	-76	-60	-2535	-41	1	1	-41	-55	-70	-46	-42.4961713723393970099	-54.9148060648493725466	-69.8910775757732523061	-47.9197122694947736932
5.0.14.0	win	042619	22:30:16	006	1	game	3	selection	339	1	86	86	2	slot2	421	421	2	2	1	-41	-41	-53	-76	-60	-2585	-50	2	1	-42	-50	-68	-46	-43.5709190986522472144	-53.3643476836864607549	-66.3108838893293039973	-45.7428572864727840397
5.0.14.0	win	042619	22:30:16	006	1	game	3	iti	342	1	86	86	2	0	2000	421	2	2	1	-41	-41	-50	-76	-60	-2585	-50	2	1	-42	-50	-68	-46	-43.5709190986522472144	-53.3643476836864607549	-66.3108838893293039973	-45.7428572864727840397
5.0.14.0	win	042619	22:30:16	006	1	game	3	selection	343	1	87	87	2	slot4	1034	1034	4	2	1	-41	-41	-50	-76	-60	-2634	-49	2	1	-38	-54	-58	-49	-39.3542733412549168293	-57.5450318436013930068	-61.943241637380012321	-50.0482605307666190697
5.0.14.0	win	042619	22:30:16	006	1	game	3	iti	346	1	87	87	2	0	2000	1034	4	2	1	-41	-41	-50	-76	-49	-2634	-49	2	1	-38	-54	-58	-49	-39.3542733412549168293	-57.5450318436013930068	-61.943241637380012321	-50.0482605307666190697
5.0.14.0	win	042619	22:30:16	006	1	game	3	selection	347	1	88	88	2	slot1	425	425	1	1	1	-41	-41	-50	-76	-49	-2678	-44	1	1	-44	-56	-63	-49	-41.4634256801152858429	-56.7855039378517361115	-58.7262140598228228328	-51.357148541232625405
5.0.14.0	win	042619	22:30:16	006	1	game	3	iti	350	1	88	88	2	0	2000	425	1	1	1	-44	-44	-50	-76	-49	-2678	-44	1	1	-44	-56	-63	-49	-41.4634256801152858429	-56.7855039378517361115	-58.7262140598228228328	-51.357148541232625405
5.0.14.0	win	042619	22:30:16	006	1	game	3	selection	351	1	89	89	2	slot3	1100	1100	3	2	1	-44	-44	-50	-76	-49	-2740	-62	2	1	-41	-53	-62	-43	-38.434252226326947266	-55.2100260228651436023	-59.4768019572352955038	-52.5093085813779723026
5.0.14.0	win	042619	22:30:16	006	1	game	3	iti	354	1	89	89	2	0	2000	1100	3	2	1	-44	-44	-50	-62	-49	-2740	-62	2	1	-41	-53	-62	-43	-38.434252226326947266	-55.2100260228651436023	-59.4768019572352955038	-52.5093085813779723026
5.0.14.0	win	042619	22:30:16	006	1	game	3	selection	355	1	90	90	2	slot2	393	393	2	2	1	-44	-44	-50	-62	-49	-2806	-66	2	1	-34	-66	-72	-51	-36.1056299228684096647	-60.45797140649068524	-67.0812410562907643907	-52.140120982017691631
5.0.14.0	win	042619	22:30:16	006	1	game	3	iti	358	1	90	90	2	0	2000	393	2	2	1	-44	-44	-66	-62	-49	-2806	-66	2	1	-34	-66	-72	-51	-36.1056299228684096647	-60.45797140649068524	-67.0812410562907643907	-52.140120982017691631
5.0.14.0	win	042619	22:30:16	006	1	game	3	selection	359	1	91	91	2	slot4	414	414	4	2	1	-44	-44	-66	-62	-49	-2864	-58	2	1	-45	-61	-64	-58	-37.9349641445874823376	-56.2924312098742802846	-61.7444060106445391511	-54.9670959976040194306
5.0.14.0	win	042619	22:30:16	006	1	game	3	iti	362	1	91	91	2	0	2000	414	4	2	1	-44	-44	-66	-62	-58	-2864	-58	2	1	-45	-61	-64	-58	-37.9349641445874823376	-56.2924312098742802846	-61.7444060106445391511	-54.9670959976040194306
5.0.14.0	win	042619	22:30:16	006	1	game	3	selection	363	1	92	92	2	slot1	622	622	1	1	1	-44	-44	-66	-62	-58	-2902	-38	1	1	-38	-49	-62	-56	-40.8166711917611664262	-55.0743630767227614342	-63.9096235072181144687	-54.3657769876437839685
5.0.14.0	win	042619	22:30:16	006	1	game	3	iti	366	1	92	92	2	0	2000	622	1	1	1	-38	-38	-66	-62	-58	-2902	-38	1	1	-38	-49	-62	-56	-40.8166711917611664262	-55.0743630767227614342	-63.9096235072181144687	-54.3657769876437839685
5.0.14.0	win	042619	22:30:16	006	1	game	3	selection	367	1	93	93	2	slot1	445	445	1	1	1	-38	-38	-66	-62	-58	-2939	-37	1	1	-37	-60	-65	-52	-40.9120930458813916175	-56.439918369798618869	-66.1963293934093854887	-51.712871268166288985
5.0.14.0	win	042619	22:30:16	006	1	game	3	iti	370	1	93	93	2	0	2000	445	1	1	1	-37	-37	-66	-62	-58	-2939	-37	1	1	-37	-60	-65	-52	-40.9120930458813916175	-56.439918369798618869	-66.1963293934093854887	-51.712871268166288985
5.0.14.0	win	042619	22:30:16	006	1	game	3	selection	371	1	94	94	2	slot1	447	447	1	1	1	-37	-37	-66	-62	-58	-2980	-41	1	1	-41	-52	-64	-45	-39.1113312197307294582	-53.2711396460686614773	-65.2758856536686948857	-51.4851822869693833695
5.0.14.0	win	042619	22:30:16	006	1	game	3	iti	374	1	94	94	2	0	2000	447	1	1	1	-41	-41	-66	-62	-58	-2980	-41	1	1	-41	-52	-64	-45	-39.1113312197307294582	-53.2711396460686614773	-65.2758856536686948857	-51.4851822869693833695
5.0.14.0	win	042619	22:30:16	006	1	game	3	selection	375	1	95	95	2	slot1	997	997	1	1	1	-41	-41	-66	-62	-58	-3017	-37	1	1	-37	-51	-68	-58	-38.3386015026122350946	-53.454349144582359088	-65.5350061106869077321	-55.5693615593499217198
5.0.14.0	win	042619	22:30:16	006	1	game	3	iti	378	1	95	95	2	0	2000	997	1	1	1	-37	-37	-66	-62	-58	-3017	-37	1	1	-37	-51	-68	-58	-38.3386015026122350946	-53.454349144582359088	-65.5350061106869077321	-55.5693615593499217198
5.0.14.0	win	042619	22:30:16	006	1	game	3	selection	379	1	96	96	2	slot1	435	435	1	1	1	-37	-37	-66	-62	-58	-3052	-35	1	1	-35	-47	-66	-60	-35.4451839940038126997	-52.5703938374101724662	-68.4229341996786928348	-55.3919553881032413756
5.0.14.0	win	042619	22:30:16	006	1	game	3	iti	382	1	96	96	2	0	2000	435	1	1	1	-35	-35	-66	-62	-58	-3052	-35	1	1	-35	-47	-66	-60	-35.4451839940038126997	-52.5703938374101724662	-68.4229341996786928348	-55.3919553881032413756
5.0.14.0	win	042619	22:30:16	006	1	game	3	selection	383	1	97	97	2	slot1	473	473	1	1	1	-35	-35	-66	-62	-58	-3087	-35	1	1	-35	-41	-75	-60	-33.6336359639474977712	-49.9314540140935250179	-71.0223769285401687057	-55.0279227372095149917
5.0.14.0	win	042619	22:30:16	006	1	game	3	iti	386	1	97	97	2	0	2000	473	1	1	1	-35	-35	-66	-62	-58	-3087	-35	1	1	-35	-41	-75	-60	-33.6336359639474977712	-49.9314540140935250179	-71.0223769285401687057	-55.0279227372095149917
5.0.14.0	win	042619	22:30:16	006	1	game	3	selection	387	1	98	98	2	slot1	423	423	1	1	1	-35	-35	-66	-62	-58	-3125	-38	1	1	-38	-57	-79	-52	-34.3069506830223716065	-55.5855711922416446669	-75.7404752868492323614	-51.9838190078254953619
5.0.14.0	win	042619	22:30:16	006	1	game	3	iti	390	1	98	98	2	0	2000	423	1	1	1	-38	-38	-66	-62	-58	-3125	-38	1	1	-38	-57	-79	-52	-34.3069506830223716065	-55.5855711922416446669	-75.7404752868492323614	-51.9838190078254953619
5.0.14.0	win	042619	22:30:16	006	1	game	3	selection	391	1	99	99	2	slot1	377	377	1	1	1	-38	-38	-66	-62	-58	-3165	-40	1	1	-40	-46	-72	-49	-33.3831084429499398425	-50.0598613117699642316	-75.2672045536785532249	-51.1546082511251114511
5.0.14.0	win	042619	22:30:16	006	1	game	3	iti	394	1	99	99	2	0	2000	377	1	1	1	-40	-40	-66	-62	-58	-3165	-40	1	1	-40	-46	-72	-49	-33.3831084429499398425	-50.0598613117699642316	-75.2672045536785532249	-51.1546082511251114511
5.0.14.0	win	042619	22:30:16	006	1	game	3	selection	395	1	100	100	2	slot4	379	379	4	2	1	-40	-40	-66	-62	-58	-3215	-50	2	1	-38	-49	-72	-50	-39.4294266737571774684	-51.607673619314269331	-74.2480183727227114332	-51.8037413492689111649
5.0.14.0	win	042619	22:30:16	006	1	game	3	iti	398	1	100	100	2	0	2000	379	4	2	1	-40	-40	-66	-62	-50	-3215	-50	2	1	-38	-49	-72	-50	-39.4294266737571774684	-51.607673619314269331	-74.2480183727227114332	-51.8037413492689111649
5.0.14.0	win	042619	22:30:16	006	1	game	3	selection	399	1	101	101	2	slot2	356	356	2	2	1	-40	-40	-66	-62	-50	-3265	-50	2	1	-36	-50	-75	-52	-37.1192825496161376009	-51.2740519531848448764	-74.7763056997694661732	-49.5429233155147485945
5.0.14.0	win	042619	22:30:16	006	1	game	3	iti	402	1	101	101	2	0	2000	356	2	2	1	-40	-40	-50	-62	-50	-3265	-50	2	1	-36	-50	-75	-52	-37.1192825496161376009	-51.2740519531848448764	-74.7763056997694661732	-49.5429233155147485945
5.0.14.0	win	042619	22:30:16	006	1	game	3	selection	403	1	102	102	2	slot1	454	454	1	1	1	-40	-40	-50	-62	-50	-3300	-35	1	1	-35	-52	-73	-56	-34.5484540346092288132	-49.7288060009718435595	-74.1285402618538853403	-51.2690128522642538655
5.0.14.0	win	042619	22:30:16	006	1	game	3	iti	406	1	102	102	2	0	2000	454	1	1	1	-35	-35	-50	-62	-50	-3300	-35	1	1	-35	-52	-73	-56	-34.5484540346092288132	-49.7288060009718435595	-74.1285402618538853403	-51.2690128522642538655
5.0.14.0	win	042619	22:30:16	006	1	game	3	selection	407	1	103	103	2	slot1	455	455	1	1	1	-35	-35	-50	-62	-50	-3330	-30	1	1	-30	-43	-74	-49	-29.0276592188078872425	-46.7245168855069721303	-72.768804094539603966	-53.1904842547810616793
5.0.14.0	win	042619	22:30:16	006	1	game	3	iti	410	1	103	103	2	0	2000	455	1	1	1	-30	-30	-50	-62	-50	-3330	-30	1	1	-30	-43	-74	-49	-29.0276592188078872425	-46.7245168855069721303	-72.768804094539603966	-53.1904842547810616793
5.0.14.0	win	042619	22:30:16	006	1	game	3	selection	411	1	104	104	2	slot1	612	612	1	1	1	-30	-30	-50	-62	-50	-3356	-26	1	1	-26	-52	-84	-55	-27.8329380908344887757	-50.0945687725821215963	-77.9554042655892516223	-52.5053090283812977646
5.0.14.0	win	042619	22:30:16	006	1	game	3	iti	414	1	104	104	2	0	2000	612	1	1	1	-26	-26	-50	-62	-50	-3356	-26	1	1	-26	-52	-84	-55	-27.8329380908344887757	-50.0945687725821215963	-77.9554042655892516223	-52.5053090283812977646
5.0.14.0	win	042619	22:30:16	006	1	game	3	selection	415	1	105	105	2	slot1	478	478	1	1	1	-26	-26	-50	-62	-50	-3393	-37	1	1	-37	-49	-78	-48	-30.7637332142986075212	-49.3512846815339401019	-75.9232371134066852392	-51.9839387838889379623
5.0.14.0	win	042619	22:30:16	006	1	game	3	iti	418	1	105	105	2	0	2000	478	1	1	1	-37	-37	-50	-62	-50	-3393	-37	1	1	-37	-49	-78	-48	-30.7637332142986075212	-49.3512846815339401019	-75.9232371134066852392	-51.9839387838889379623
5.0.14.0	win	042619	22:30:16	006	1	game	3	selection	419	1	106	106	2	slot1	451	451	1	1	1	-37	-37	-50	-62	-50	-3421	-28	1	1	-28	-46	-67	-55	-28.3055692412348633979	-44.5699011042507677871	-70.9046330989135924483	-52.5198190712833508087
5.0.14.0	win	042619	22:30:16	006	1	game	3	iti	422	1	106	106	2	0	2000	451	1	1	1	-28	-28	-50	-62	-50	-3421	-28	1	1	-28	-46	-67	-55	-28.3055692412348633979	-44.5699011042507677871	-70.9046330989135924483	-52.5198190712833508087
5.0.14.0	win	042619	22:30:16	006	1	game	3	selection	423	1	107	107	2	slot1	444	444	1	1	1	-28	-28	-50	-62	-50	-3454	-33	1	1	-33	-36	-78	-54	-32.0077779404488751425	-47.012842509382544165	-71.5792359943876590478	-50.8333095507134160584
5.0.14.0	win	042619	22:30:16	006	1	game	3	iti	426	1	107	107	2	0	2000	444	1	1	1	-33	-33	-50	-62	-50	-3454	-33	1	1	-33	-36	-78	-54	-32.0077779404488751425	-47.012842509382544165	-71.5792359943876590478	-50.8333095507134160584
5.0.14.0	win	042619	22:30:16	006	1	game	3	selection	427	1	108	108	2	slot1	557	557	1	1	1	-33	-33	-50	-62	-50	-3479	-25	1	1	-25	-55	-73	-53	-29.1168221154783601889	-52.2100426587814681056	-69.7608356391061903423	-51.4214999632775047189
5.0.14.0	win	042619	22:30:16	006	1	game	3	iti	430	1	108	108	2	0	2000	557	1	1	1	-25	-25	-50	-62	-50	-3479	-25	1	1	-25	-55	-73	-53	-29.1168221154783601889	-52.2100426587814681056	-69.7608356391061903423	-51.4214999632775047189
5.0.14.0	win	042619	22:30:16	006	1	game	3	selection	431	1	109	109	2	slot1	423	423	1	1	1	-25	-25	-50	-62	-50	-3505	-26	1	1	-26	-51	-67	-42	-30.5898645458658258178	-50.7911716966218307334	-66.5356483829266664998	-47.4692063366589636075
5.0.14.0	win	042619	22:30:16	006	1	game	3	iti	434	1	109	109	2	0	2000	423	1	1	1	-26	-26	-50	-62	-50	-3505	-26	1	1	-26	-51	-67	-42	-30.5898645458658258178	-50.7911716966218307334	-66.5356483829266664998	-47.4692063366589636075
5.0.14.0	win	042619	22:30:16	006	1	game	3	selection	435	1	110	110	2	slot1	615	615	1	1	1	-26	-26	-50	-62	-50	-3534	-29	1	1	-29	-43	-71	-51	-32.9172505184485260088	-44.9108860703974386297	-70.0533149586408541154	-45.4343935612728344609
5.0.14.0	win	042619	22:30:16	006	1	game	3	iti	438	1	110	110	2	0	2000	615	1	1	1	-29	-29	-50	-62	-50	-3534	-29	1	1	-29	-43	-71	-51	-32.9172505184485260088	-44.9108860703974386297	-70.0533149586408541154	-45.4343935612728344609
5.0.14.0	win	042619	22:30:16	006	1	game	3	selection	439	1	111	111	2	slot1	480	480	1	1	1	-29	-29	-50	-62	-50	-3575	-41	2	4	-41	-44	-70	-38	-34.7229023964167353711	-41.8211449495565261714	-67.2193564706213635418	-43.2271953819486327575
5.0.14.0	win	042619	22:30:16	006	1	game	3	iti	442	1	111	111	2	0	2000	480	1	1	1	-41	-41	-50	-62	-50	-3575	-41	2	4	-41	-44	-70	-38	-34.7229023964167353711	-41.8211449495565261714	-67.2193564706213635418	-43.2271953819486327575
5.0.14.0	win	042619	22:30:16	006	1	game	3	selection	443	1	112	112	2	slot4	1008	1008	4	2	1	-41	-41	-50	-62	-50	-3612	-37	1	4	-39	-43	-62	-37	-32.8961765777995083226	-48.6818759578283248857	-68.0129554709382659894	-42.4287988713033925592
5.0.14.0	win	042619	22:30:16	006	1	game	3	iti	446	1	112	112	2	0	2000	1008	4	2	4	-37	-41	-50	-62	-37	-3612	-37	1	4	-39	-43	-62	-37	-32.8961765777995083226	-48.6818759578283248857	-68.0129554709382659894	-42.4287988713033925592
5.0.14.0	win	042619	22:30:16	006	1	game	3	selection	447	1	113	113	2	slot2	1103	1103	2	2	4	-37	-41	-50	-62	-37	-3658	-46	2	4	-39	-46	-68	-37	-35.0222502474221286661	-48.3795359258857189388	-67.9837278803151860984	-39.3924043479047440997
5.0.14.0	win	042619	22:30:16	006	1	game	3	iti	450	1	113	113	2	0	2000	1103	2	2	4	-37	-41	-46	-62	-37	-3658	-46	2	4	-39	-46	-68	-37	-35.0222502474221286661	-48.3795359258857189388	-67.9837278803151860984	-39.3924043479047440997
5.0.14.0	win	042619	22:30:16	006	1	game	3	selection	451	1	114	114	2	slot4	748	748	4	1	4	-37	-41	-46	-62	-37	-3697	-39	2	1	-38	-51	-65	-39	-29.641383375406277878	-52.3605360891533990753	-66.0926905027903330847	-43.2430002390524563793
5.0.14.0	win	042619	22:30:16	006	1	game	3	iti	454	1	114	114	2	0	2000	748	4	1	4	-39	-41	-46	-62	-39	-3697	-39	2	1	-38	-51	-65	-39	-29.641383375406277878	-52.3605360891533990753	-66.0926905027903330847	-43.2430002390524563793
5.0.14.0	win	042619	22:30:16	006	1	game	3	selection	455	1	115	115	2	slot1	756	756	1	2	4	-39	-41	-46	-62	-39	-3730	-33	1	1	-33	-50	-65	-49	-28.5555547074984836797	-47.8431643701398172652	-62.0125812131746556588	-47.9128101408393263227
5.0.14.0	win	042619	22:30:16	006	1	game	3	iti	458	1	115	115	2	0	2000	756	1	2	1	-33	-33	-46	-62	-39	-3730	-33	1	1	-33	-50	-65	-49	-28.5555547074984836797	-47.8431643701398172652	-62.0125812131746556588	-47.9128101408393263227
5.0.14.0	win	042619	22:30:16	006	1	game	3	selection	459	1	116	116	2	slot4	576	576	4	2	1	-33	-33	-46	-62	-39	-3770	-40	2	1	-27	-44	-61	-40	-30.7203459014527240356	-46.9910879585131482372	-61.2664449834089666069	-44.0400604255766410233
5.0.14.0	win	042619	22:30:16	006	1	game	3	iti	462	1	116	116	2	0	2000	576	4	2	1	-33	-33	-46	-62	-40	-3770	-40	2	1	-27	-44	-61	-40	-30.7203459014527240356	-46.9910879585131482372	-61.2664449834089666069	-44.0400604255766410233
5.0.14.0	win	042619	22:30:16	006	1	game	3	selection	463	1	117	117	2	slot1	725	725	1	1	1	-33	-33	-46	-62	-40	-3806	-36	1	1	-36	-57	-62	-41	-29.5386970947823570555	-45.7316934204727090219	-62.2335933474706095581	-39.9141614256309011921
5.0.14.0	win	042619	22:30:16	006	1	game	3	iti	466	1	117	117	2	0	2000	725	1	1	1	-36	-36	-46	-62	-40	-3806	-36	1	1	-36	-57	-62	-41	-29.5386970947823570555	-45.7316934204727090219	-62.2335933474706095581	-39.9141614256309011921
5.0.14.0	win	042619	22:30:16	006	1	game	3	selection	467	1	118	118	2	slot4	864	864	4	2	1	-36	-36	-46	-62	-40	-3853	-47	2	1	-21	-45	-63	-47	-25.8707844803423725466	-41.8817553254695269516	-63.8182361271107652101	-41.7546748253980695154
5.0.14.0	win	042619	22:30:16	006	1	game	3	iti	470	1	118	118	2	0	2000	864	4	2	1	-36	-36	-46	-62	-47	-3853	-47	2	1	-21	-45	-63	-47	-25.8707844803423725466	-41.8817553254695269516	-63.8182361271107652101	-41.7546748253980695154
5.0.14.0	win	042619	22:30:16	006	1	game	3	selection	471	1	119	119	2	slot1	1003	1003	1	1	1	-36	-36	-46	-62	-47	-3881	-28	1	1	-28	-40	-63	-38	-25.7392186723907023804	-37.8103820420730656338	-65.2009755114935245501	-40.5607319196013236251
5.0.14.0	win	042619	22:30:16	006	1	game	3	iti	474	1	119	119	2	0	2000	1003	1	1	1	-28	-28	-46	-62	-47	-3881	-28	1	1	-28	-40	-63	-38	-25.7392186723907023804	-37.8103820420730656338	-65.2009755114935245501	-40.5607319196013236251
5.0.14.0	win	042619	22:30:16	006	1	game	3	selection	475	1	120	120	2	slot1	590	590	1	1	1	-28	-28	-46	-62	-47	-3912	-31	1	1	-31	-38	-68	-50	-28.1781025515514436108	-34.5328909918464361795	-62.3114988801729481338	-42.8974705739331909626
5.0.14.0	win	042619	22:30:16	006	1	game	3	iti	478	1	120	120	2	0	2000	590	1	1	1	-31	-31	-46	-62	-47	-3912	-31	1	1	-31	-38	-68	-50	-28.1781025515514436108	-34.5328909918464361795	-62.3114988801729481338	-42.8974705739331909626
5.0.14.0	win	042619	22:30:16	006	1	game	3	selection	479	1	121	121	2	slot1	476	476	1	1	1	-31	-31	-46	-62	-47	-3951	-39	2	2	-39	-36	-59	-42	-29.0507546745035618585	-37.494238349915704589	-60.2992972620202536405	-42.4968215803698825539
5.0.14.0	win	042619	22:30:16	006	1	game	3	iti	482	1	121	121	2	0	2000	476	1	1	1	-39	-39	-46	-62	-47	-3951	-39	2	2	-39	-36	-59	-42	-29.0507546745035618585	-37.494238349915704589	-60.2992972620202536405	-42.4968215803698825539
5.0.14.0	win	042619	22:30:16	006	1	game	3	selection	483	1	122	122	2	slot4	914	914	4	2	1	-39	-39	-46	-62	-47	-3994	-43	2	1	-37	-46	-61	-43	-34.7847741765854507889	-39.3985657674841576181	-62.8649531398392795722	-43.1799883571293534601
5.0.14.0	win	042619	22:30:16	006	1	game	3	iti	486	1	122	122	2	0	2000	914	4	2	1	-39	-39	-46	-62	-43	-3994	-43	2	1	-37	-46	-61	-43	-34.7847741765854507889	-39.3985657674841576181	-62.8649531398392795722	-43.1799883571293534601
5.0.14.0	win	042619	22:30:16	006	1	game	3	selection	487	1	123	123	2	slot1	569	569	1	1	1	-39	-39	-46	-62	-43	-4027	-33	1	1	-33	-41	-62	-52	-34.0493707425552329937	-42.2862856097310526593	-62.2241873040615587342	-45.4932258422464883552
5.0.14.0	win	042619	22:30:16	006	1	game	3	iti	490	1	123	123	2	0	2000	569	1	1	1	-33	-33	-46	-62	-43	-4027	-33	1	1	-33	-41	-62	-52	-34.0493707425552329937	-42.2862856097310526593	-62.2241873040615587342	-45.4932258422464883552
5.0.14.0	win	042619	22:30:16	006	1	game	3	selection	491	1	124	124	2	slot1	397	397	1	1	1	-33	-33	-46	-62	-43	-4075	-48	2	4	-48	-44	-60	-38	-37.3281110586997115774	-44.6434218100762620907	-60.5367697327511820049	-42.4576726682088931852
5.0.14.0	win	042619	22:30:16	006	1	game	3	iti	494	1	124	124	2	0	2000	397	1	1	4	-43	-48	-46	-62	-43	-4075	-48	2	4	-48	-44	-60	-38	-37.3281110586997115774	-44.6434218100762620907	-60.5367697327511820049	-42.4576726682088931852
5.0.14.0	win	042619	22:30:16	006	1	game	3	selection	495	1	125	125	2	slot4	396	396	4	1	4	-43	-48	-46	-62	-43	-4115	-40	2	1	-37	-48	-54	-40	-39.5457312871811126342	-48.6128951663303325859	-60.9377844723194144194	-43.0032759048808657099
5.0.14.0	win	042619	22:30:16	006	1	game	3	iti	498	1	125	125	2	0	2000	396	4	1	4	-40	-48	-46	-62	-40	-4115	-40	2	1	-37	-48	-54	-40	-39.5457312871811126342	-48.6128951663303325859	-60.9377844723194144194	-43.0032759048808657099
5.0.14.0	win	042619	22:30:16	006	1	game	3	selection	499	1	126	126	2	slot4	363	363	4	1	4	-40	-48	-46	-62	-40	-4161	-46	2	1	-34	-47	-57	-46	-36.7436090410745421764	-43.9569527800919814808	-59.0107446839018265905	-45.1794634626812836586
5.0.14.0	win	042619	22:30:16	006	1	game	3	iti	502	1	126	126	2	0	2000	363	4	1	2	-46	-48	-46	-62	-46	-4161	-46	2	1	-34	-47	-57	-46	-36.7436090410745421764	-43.9569527800919814808	-59.0107446839018265905	-45.1794634626812836586
5.0.14.0	win	042619	22:30:16	006	1	game	3	selection	503	1	127	127	2	slot1	829	829	1	2	2	-46	-48	-46	-62	-46	-4191	-30	1	1	-30	-47	-52	-50	-37.0812845613561989921	-46.3979354816541231799	-52.7736395056668499137	-46.6155178115451889198
5.0.14.0	win	042619	22:30:16	006	1	game	3	iti	506	1	127	127	2	0	2000	829	1	2	1	-30	-30	-46	-62	-46	-4191	-30	1	1	-30	-47	-52	-50	-37.0812845613561989921	-46.3979354816541231799	-52.7736395056668499137	-46.6155178115451889198
5.0.14.0	win	042619	22:30:16	006	1	game	3	selection	507	1	128	128	2	slot1	405	405	1	1	1	-30	-30	-46	-62	-46	-4232	-41	2	2	-41	-38	-57	-50	-42.8472317338269590437	-44.0230690708434906355	-51.1535760679129225537	-45.0901037236882871184
5.0.14.0	win	042619	22:30:16	006	1	game	3	iti	510	1	128	128	2	0	2000	405	1	1	1	-41	-41	-46	-62	-46	-4232	-41	2	2	-41	-38	-57	-50	-42.8472317338269590437	-44.0230690708434906355	-51.1535760679129225537	-45.0901037236882871184
5.0.14.0	win	042619	22:30:16	006	1	game	3	selection	511	1	129	129	2	slot2	367	367	2	2	1	-41	-41	-46	-62	-46	-4273	-41	2	1	-36	-41	-51	-45	-42.6874222001762930745	-40.4908313442987406461	-50.9306852757793180331	-47.9760669543786164581
5.0.14.0	win	042619	22:30:16	006	1	game	3	iti	514	1	129	129	2	0	2000	367	2	2	1	-41	-41	-41	-62	-46	-4273	-41	2	1	-36	-41	-51	-45	-42.6874222001762930745	-40.4908313442987406461	-50.9306852757793180331	-47.9760669543786164581
5.0.14.0	win	042619	22:30:16	006	1	game	3	selection	515	1	130	130	2	slot2	335	335	2	2	1	-41	-41	-41	-62	-46	-4319	-46	2	3	-44	-46	-42	-49	-41.42892028592057585	-39.2718503331602306616	-49.0094540986786810777	-49.3042606656421114053
5.0.14.0	win	042619	22:30:16	006	1	game	3	iti	518	1	130	130	2	0	2000	335	2	2	1	-41	-41	-46	-62	-46	-4319	-46	2	3	-44	-46	-42	-49	-41.42892028592057585	-39.2718503331602306616	-49.0094540986786810777	-49.3042606656421114053
5.0.14.0	win	042619	22:30:16	006	1	game	3	selection	519	1	131	131	2	slot1	626	626	1	1	1	-41	-41	-46	-62	-46	-4363	-44	1	1	-44	-45	-53	-57	-44.8107986379699596569	-40.7855892440783875941	-48.5370300795131299765	-51.2044643391516274278
5.0.14.0	win	042619	22:30:16	006	1	game	3	iti	522	1	131	131	2	0	2000	626	1	1	1	-44	-44	-46	-62	-46	-4363	-44	1	1	-44	-45	-53	-57	-44.8107986379699596569	-40.7855892440783875941	-48.5370300795131299765	-51.2044643391516274278
5.0.14.0	win	042619	22:30:16	006	1	game	3	selection	523	1	132	132	2	slot4	346	346	4	2	1	-44	-44	-46	-62	-46	-4410	-47	2	2	-51	-38	-56	-47	-45.9207384327042049676	-40.2938919896154672529	-52.3331525108197297413	-49.0253865887188524653
5.0.14.0	win	042619	22:30:16	006	1	game	3	iti	526	1	132	132	2	0	2000	346	4	2	1	-44	-44	-46	-62	-47	-4410	-47	2	2	-51	-38	-56	-47	-45.9207384327042049676	-40.2938919896154672529	-52.3331525108197297413	-49.0253865887188524653
5.0.14.0	win	042619	22:30:16	006	1	game	3	selection	527	1	133	133	2	slot1	363	363	1	1	1	-44	-44	-46	-62	-47	-4461	-51	2	2	-51	-30	-48	-50	-46.0574310166880636075	-39.4785245113449292376	-51.4067137577844803786	-47.3296019169969639506
5.0.14.0	win	042619	22:30:16	006	1	game	3	iti	530	1	133	133	2	0	2000	363	1	1	2	-46	-51	-46	-62	-47	-4461	-51	2	2	-51	-30	-48	-50	-46.0574310166880636075	-39.4785245113449292376	-51.4067137577844803786	-47.3296019169969639506
5.0.14.0	win	042619	22:30:16	006	1	game	3	selection	531	1	134	134	2	slot4	627	627	4	2	2	-46	-51	-46	-62	-47	-4514	-53	2	2	-44	-40	-50	-53	-46.2271962965572456028	-41.566219681887872639	-50.5207975254736751936	-49.0985857142101309591
5.0.14.0	win	042619	22:30:16	006	1	game	3	iti	534	1	134	134	2	0	2000	627	4	2	2	-46	-51	-46	-62	-53	-4514	-53	2	2	-44	-40	-50	-53	-46.2271962965572456028	-41.566219681887872639	-50.5207975254736751936	-49.0985857142101309591
5.0.14.0	win	042619	22:30:16	006	1	game	3	selection	535	1	135	135	2	slot2	376	376	2	1	2	-46	-51	-46	-62	-53	-4551	-37	1	2	-48	-37	-49	-52	-47.6446488489916859521	-38.4284895082928770194	-54.3410894909644213158	-50.1669947364054209515
5.0.14.0	win	042619	22:30:16	006	1	game	3	iti	538	1	135	135	2	0	2000	376	2	1	2	-37	-51	-37	-62	-53	-4551	-37	1	2	-48	-37	-49	-52	-47.6446488489916859521	-38.4284895082928770194	-54.3410894909644213158	-50.1669947364054209515
5.0.14.0	win	042619	22:30:16	006	1	game	3	selection	539	1	136	136	2	slot2	401	401	2	1	2	-37	-51	-37	-62	-53	-4588	-37	1	2	-59	-37	-52	-48	-48.1567278268781180373	-38.5320140038648446534	-55.4070545250597561449	-52.8388792059550667091
5.0.14.0	win	042619	22:30:16	006	1	game	3	iti	542	1	136	136	2	0	2000	401	2	1	2	-37	-51	-37	-62	-53	-4588	-37	1	2	-59	-37	-52	-48	-48.1567278268781180373	-38.5320140038648446534	-55.4070545250597561449	-52.8388792059550667091
5.0.14.0	win	042619	22:30:16	006	1	game	3	selection	543	1	137	137	2	slot2	383	383	2	1	2	-37	-51	-37	-62	-53	-4626	-38	1	2	-41	-38	-60	-54	-44.4385585276317911507	-39.0312917047491865219	-56.905533380728925863	-47.5920319028199330091
5.0.14.0	win	042619	22:30:16	006	1	game	3	iti	546	1	137	137	2	0	2000	383	2	1	2	-38	-51	-38	-62	-53	-4626	-38	1	2	-41	-38	-60	-54	-44.4385585276317911507	-39.0312917047491865219	-56.905533380728925863	-47.5920319028199330091
5.0.14.0	win	042619	22:30:16	006	1	game	3	selection	547	1	138	138	2	slot3	367	367	3	2	2	-38	-51	-38	-62	-53	-4674	-48	2	2	-43	-39	-48	-45	-44.2062529350873774092	-39.8847399789291330308	-59.0321574862372457915	-50.2466412621857330123
5.0.14.0	win	042619	22:30:16	006	1	game	3	iti	550	1	138	138	2	0	2000	367	3	2	2	-38	-51	-38	-48	-53	-4674	-48	2	2	-43	-39	-48	-45	-44.2062529350873774092	-39.8847399789291330308	-59.0321574862372457915	-50.2466412621857330123
5.0.14.0	win	042619	22:30:16	006	1	game	3	selection	551	1	139	139	2	slot2	455	455	2	1	2	-38	-51	-38	-48	-53	-4721	-47	2	1	-37	-47	-63	-50	-42.788539091772840095	-44.5108649981053261513	-63.2260862076774330376	-48.9608470341980108742
5.0.14.0	win	042619	22:30:16	006	1	game	3	iti	554	1	139	139	2	0	2000	455	2	1	2	-47	-51	-47	-48	-53	-4721	-47	2	1	-37	-47	-63	-50	-42.788539091772840095	-44.5108649981053261513	-63.2260862076774330376	-48.9608470341980108742
5.0.14.0	win	042619	22:30:16	006	1	game	3	selection	555	1	140	140	2	slot1	368	368	1	2	2	-47	-51	-47	-48	-53	-4768	-47	2	2	-47	-42	-63	-52	-43.9816825371482309492	-44.079045591250142877	-60.6506726824003337128	-47.5267343614553823272
5.0.14.0	win	042619	22:30:16	006	1	game	3	iti	558	1	140	140	2	0	2000	368	1	2	1	-47	-47	-47	-48	-53	-4768	-47	2	2	-47	-42	-63	-52	-43.9816825371482309492	-44.079045591250142877	-60.6506726824003337128	-47.5267343614553823272
5.0.14.0	win	042619	22:30:16	006	1	game	3	selection	559	1	141	141	2	slot4	394	394	4	2	1	-47	-47	-47	-48	-53	-4817	-49	2	1	-40	-42	-67	-49	-46.2525941355865199967	-42.8935193484592716118	-63.5789760573663471632	-46.902089306517758871
5.0.14.0	win	042619	22:30:16	006	1	game	3	iti	562	1	141	141	2	0	2000	394	4	2	1	-47	-47	-47	-48	-49	-4817	-49	2	1	-40	-42	-67	-49	-46.2525941355865199967	-42.8935193484592716118	-63.5789760573663471632	-46.902089306517758871
5.0.14.0	win	042619	22:30:16	006	1	game	3	selection	563	1	142	142	2	slot2	819	819	2	2	1	-47	-47	-47	-48	-49	-4865	-48	2	1	-45	-48	-59	-46	-48.0754877544803633782	-44.6323629764133116282	-61.1937811384798564518	-48.6206855339387473691
5.0.14.0	win	042619	22:30:16	006	1	game	3	iti	566	1	142	142	2	0	2000	819	2	2	1	-47	-47	-48	-48	-49	-4865	-48	2	1	-45	-48	-59	-46	-48.0754877544803633782	-44.6323629764133116282	-61.1937811384798564518	-48.6206855339387473691
5.0.14.0	win	042619	22:30:16	006	1	game	3	selection	567	1	143	143	2	slot2	583	583	2	2	1	-47	-47	-48	-48	-49	-4905	-40	1	2	-45	-40	-47	-48	-44.3094100608739580593	-42.6042303362948544532	-59.9906238646042595519	-49.0121069157566822128
5.0.14.0	win	042619	22:30:16	006	1	game	3	iti	570	1	143	143	2	0	2000	583	2	2	2	-40	-47	-40	-48	-49	-4905	-40	1	2	-45	-40	-47	-48	-44.3094100608739580593	-42.6042303362948544532	-59.9906238646042595519	-49.0121069157566822128
5.0.14.0	win	042619	22:30:16	006	1	game	3	selection	571	1	144	144	2	slot2	604	604	2	1	2	-40	-47	-40	-48	-49	-4950	-45	2	1	-44	-45	-66	-49	-44.8234744303807275401	-45.7784745355130340272	-64.5272387691523761077	-45.9839169863162453566
5.0.14.0	win	042619	22:30:16	006	1	game	3	iti	574	1	144	144	2	0	2000	604	2	1	2	-45	-47	-45	-48	-49	-4950	-45	2	1	-44	-45	-66	-49	-44.8234744303807275401	-45.7784745355130340272	-64.5272387691523761077	-45.9839169863162453566
5.0.14.0	win	042619	22:30:16	006	1	game	3	selection	575	1	145	145	2	slot2	550	550	2	1	2	-45	-47	-45	-48	-49	-5005	-55	2	1	-45	-55	-62	-56	-43.8337829843003419228	-47.377956622611741011	-63.7964582096731618321	-50.4551148325088192337
5.0.14.0	win	042619	22:30:16	006	1	game	3	iti	578	1	145	145	2	0	2000	550	2	1	1	-47	-47	-55	-48	-49	-5005	-55	2	1	-45	-55	-62	-56	-43.8337829843003419228	-47.377956622611741011	-63.7964582096731618321	-50.4551148325088192337
5.0.14.0	win	042619	22:30:16	006	1	game	3	selection	579	1	146	146	2	slot1	358	358	1	1	1	-47	-47	-55	-48	-49	-5046	-41	1	1	-41	-47	-62	-45	-42.4460456980246902958	-47.685628766002416512	-62.9021340299513624927	-45.4447870011314378758
5.0.14.0	win	042619	22:30:16	006	1	game	3	iti	582	1	146	146	2	0	2000	358	1	1	1	-41	-41	-55	-48	-49	-5046	-41	1	1	-41	-47	-62	-45	-42.4460456980246902958	-47.685628766002416512	-62.9021340299513624927	-45.4447870011314378758
5.0.14.0	win	042619	22:30:16	006	1	game	3	selection	583	1	147	147	2	slot1	585	585	1	1	1	-41	-41	-55	-48	-49	-5082	-36	1	1	-36	-52	-58	-42	-42.8266176499126629551	-53.5603688939297271077	-62.6535228425481633963	-42.0526164817651562089
5.0.14.0	win	042619	22:30:16	006	1	game	3	iti	586	1	147	147	2	0	2000	585	1	1	1	-36	-36	-55	-48	-49	-5082	-36	1	1	-36	-52	-58	-42	-42.8266176499126629551	-53.5603688939297271077	-62.6535228425481633963	-42.0526164817651562089
5.0.14.0	win	042619	22:30:16	006	1	game	3	selection	587	1	148	148	2	slot1	561	561	1	1	1	-36	-36	-55	-48	-49	-5125	-43	1	1	-43	-56	-68	-51	-42.5603960303512138807	-53.5443595898921458343	-60.1721043996408013754	-46.2546414075637599694
5.0.14.0	win	042619	22:30:16	006	1	game	3	iti	590	1	148	148	2	0	2000	561	1	1	1	-43	-43	-55	-48	-49	-5125	-43	1	1	-43	-56	-68	-51	-42.5603960303512138807	-53.5443595898921458343	-60.1721043996408013754	-46.2546414075637599694
5.0.14.0	win	042619	22:30:16	006	1	game	3	selection	591	1	149	149	2	slot4	1041	1041	4	2	1	-43	-43	-55	-48	-49	-5169	-44	2	1	-42	-56	-66	-44	-39.0164156866890579067	-54.7492640276005673172	-58.8934476893350193905	-47.4588869845094478706
5.0.14.0	win	042619	22:30:16	006	1	game	3	iti	594	1	149	149	2	0	2000	1041	4	2	1	-43	-43	-55	-48	-44	-5169	-44	2	1	-42	-56	-66	-44	-39.0164156866890579067	-54.7492640276005673172	-58.8934476893350193905	-47.4588869845094478706
5.0.14.0	win	042619	22:30:16	006	1	game	3	selection	595	1	150	150	2	slot1	1105	1105	1	1	1	-43	-43	-55	-48	-44	-5206	-37	1	1	-37	-46	-53	-52	-34.397507318496394646	-54.0310972344278468427	-50.2315899555420273259	-43.2549885812615144687
5.0.14.0	win	042619	22:30:16	006	1	game	3	iti	598	1	150	150	2	0	2000	1105	1	1	1	-37	-37	-55	-48	-44	-5206	-37	1	1	-37	-46	-53	-52	-34.397507318496394646	-54.0310972344278468427	-50.2315899555420273259	-43.2549885812615144687
