build	computer.platform	date	time	subject	group	blockcode	blocknum	trialcode	trialnum	values.countRounds	values.TotaltrialCount	values.trialCount_perRound	values.noResponseCount	response	latency	values.selectionRT	values.selectedSlot	values.choice	values.currenthighestSeenPayOffSlot	values.currenthighestSeenPayOff	values.lastSeenPayOff1	values.lastSeenPayOff2	values.lastSeenPayOff3	values.lastSeenPayOff4	values.total	values.currentPayoff	values.highestPayOffSelected	values.currentHighestPayOffSlot	values.payOff1	values.payOff2	values.payOff3	values.payOff4	values.mean1	values.mean2	values.mean3	values.mean4
5.0.14.0	win	042919	14:47:00	008	1	demo	1	selection	2	0	1	1	0	slot3	546	546	3	2	0	0	0	0	0	0	-17	-17	2	2	-27	-1	-17	-44	-28.8225622555495171184	-4.1393485434326953154	-15.8540808477020576106	-43.7070273106466302693
5.0.14.0	win	042919	14:47:00	008	1	demo	1	iti	5	0	1	1	0	0	2000	546	3	2	1	0	0	0	-17	0	-17	-17	2	2	-27	-1	-17	-44	-28.8225622555495171184	-4.1393485434326953154	-15.8540808477020576106	-43.7070273106466302693
5.0.14.0	win	042919	14:47:00	008	1	demo	1	selection	6	0	2	2	0	slot1	238	238	1	1	1	0	0	0	-17	0	-44	-27	2	2	-27	-8	-10	-49	-24.02708794879834997	-4.6934058901408306497	-16.9976273605947127976	-44.8306474154063181459
5.0.14.0	win	042919	14:47:00	008	1	demo	1	iti	9	0	2	2	0	0	2000	238	1	1	2	0	-27	0	-17	0	-44	-27	2	2	-27	-8	-10	-49	-24.02708794879834997	-4.6934058901408306497	-16.9976273605947127976	-44.8306474154063181459
5.0.14.0	win	042919	14:47:00	008	1	demo	1	selection	10	0	3	3	1	0	1500	1500	0	0	2	0	-27	0	-17	0	-44	0	0	2	-28	-8	-21	-43	-23.7395707111873655037	-5.2947603690641891205	-21.2220239677320918759	-46.8314008794044411843
5.0.14.0	win	042919	14:47:00	008	1	demo	1	iti	12	0	3	3	1	0	2000	1500	0	0	2	0	-27	0	-17	0	-44	0	0	2	-28	-8	-21	-43	-23.7395707111873655037	-5.2947603690641891205	-21.2220239677320918759	-46.8314008794044411843
5.0.14.0	win	042919	14:47:00	008	1	demo	1	selection	13	0	4	4	2	0	1500	1500	0	0	2	0	-27	0	-17	0	-44	0	0	2	-23	-10	-21	-48	-21.9160228040241520375	-3.2101302005604019918	-20.8568765001879619092	-44.7654956951160514222
5.0.14.0	win	042919	14:47:00	008	1	demo	1	iti	15	0	4	4	2	0	2000	1500	0	0	2	0	-27	0	-17	0	-44	0	0	2	-23	-10	-21	-48	-21.9160228040241520375	-3.2101302005604019918	-20.8568765001879619092	-44.7654956951160514222
5.0.14.0	win	042919	14:47:00	008	1	demo	1	selection	16	0	5	5	3	0	1500	1500	0	0	2	0	-27	0	-17	0	-44	0	0	2	-16	-4	-18	-43	-21.3335708363938145737	-5.1428311743525938482	-25.4016415902850916098	-43.3250859522367477439
5.0.14.0	win	042919	14:47:00	008	1	demo	1	iti	18	0	5	5	3	0	2000	1500	0	0	2	0	-27	0	-17	0	-44	0	0	2	-16	-4	-18	-43	-21.3335708363938145737	-5.1428311743525938482	-25.4016415902850916098	-43.3250859522367477439
5.0.14.0	win	042919	14:47:00	008	1	game	3	selection	1	1	1	1	0	slot3	652	652	3	2	0	0	0	0	0	0	-49	-49	2	4	-64	-73	-49	-20	-62.7162149186715751625	-78.2071650396618309742	-41.9264148376172656185	-22.4683146031269380671
5.0.14.0	win	042919	14:47:00	008	1	game	3	iti	4	1	1	1	0	0	2000	652	3	2	1	0	0	0	-49	0	-49	-49	2	4	-64	-73	-49	-20	-62.7162149186715751625	-78.2071650396618309742	-41.9264148376172656185	-22.4683146031269380671
5.0.14.0	win	042919	14:47:00	008	1	game	3	selection	5	1	2	2	0	slot2	264	264	2	2	1	0	0	0	-49	0	-133	-84	2	4	-63	-84	-44	-24	-61.8327510292456565821	-79.3498373699076324783	-42.2546372173890674162	-21.0812188669854130296
5.0.14.0	win	042919	14:47:00	008	1	game	3	iti	8	1	2	2	0	0	2000	264	2	2	1	0	0	-84	-49	0	-133	-84	2	4	-63	-84	-44	-24	-61.8327510292456565821	-79.3498373699076324783	-42.2546372173890674162	-21.0812188669854130296
5.0.14.0	win	042919	14:47:00	008	1	game	3	selection	9	1	3	3	0	slot1	232	232	1	1	1	0	0	-84	-49	0	-183	-50	2	4	-50	-78	-44	-21	-63.5715408477658030506	-79.174643659433229459	-39.9415763054813197641	-22.1790064966795661405
5.0.14.0	win	042919	14:47:00	008	1	game	3	iti	12	1	3	3	0	0	2000	232	1	1	4	0	-50	-84	-49	0	-183	-50	2	4	-50	-78	-44	-21	-63.5715408477658030506	-79.174643659433229459	-39.9415763054813197641	-22.1790064966795661405
5.0.14.0	win	042919	14:47:00	008	1	game	3	selection	13	1	4	4	0	slot4	444	444	4	1	4	0	-50	-84	-49	0	-206	-23	1	4	-65	-81	-46	-23	-62.0620028071286569116	-78.73249821690771455	-41.8581007608745139237	-23.298240601280603812
5.0.14.0	win	042919	14:47:00	008	1	game	3	iti	16	1	4	4	0	0	2000	444	4	1	4	-23	-50	-84	-49	-23	-206	-23	1	4	-65	-81	-46	-23	-62.0620028071286569116	-78.73249821690771455	-41.8581007608745139237	-23.298240601280603812
5.0.14.0	win	042919	14:47:00	008	1	game	3	selection	17	1	5	5	0	slot4	342	342	4	1	4	-23	-50	-84	-49	-23	-223	-17	1	4	-59	-84	-39	-17	-64.0377991991560975293	-79.1336877448155462389	-43.8575939693813126041	-17.6813492562476923808
5.0.14.0	win	042919	14:47:00	008	1	game	3	iti	20	1	5	5	0	0	2000	342	4	1	4	-17	-50	-84	-49	-17	-223	-17	1	4	-59	-84	-39	-17	-64.0377991991560975293	-79.1336877448155462389	-43.8575939693813126041	-17.6813492562476923808
5.0.14.0	win	042919	14:47:00	008	1	game	3	selection	21	1	6	6	0	slot4	571	571	4	1	4	-17	-50	-84	-49	-17	-241	-18	1	4	-71	-80	-53	-18	-67.9003180819877059093	-76.3360857572263427073	-46.1065566354472338162	-21.7630904019294533214
5.0.14.0	win	042919	14:47:00	008	1	game	3	iti	24	1	6	6	0	0	2000	571	4	1	4	-18	-50	-84	-49	-18	-241	-18	1	4	-71	-80	-53	-18	-67.9003180819877059093	-76.3360857572263427073	-46.1065566354472338162	-21.7630904019294533214
5.0.14.0	win	042919	14:47:00	008	1	game	3	selection	25	1	7	7	0	slot4	108	108	4	1	4	-18	-50	-84	-49	-18	-257	-16	1	4	-67	-80	-53	-16	-68.3108254893144533071	-75.219171353084092857	-50.2075581657675158453	-22.3632194838574278606
5.0.14.0	win	042919	14:47:00	008	1	game	3	iti	28	1	7	7	0	0	2000	108	4	1	4	-16	-50	-84	-49	-16	-257	-16	1	4	-67	-80	-53	-16	-68.3108254893144533071	-75.219171353084092857	-50.2075581657675158453	-22.3632194838574278606
5.0.14.0	win	042919	14:47:00	008	1	game	3	selection	29	1	8	8	0	slot4	292	292	4	1	4	-16	-50	-84	-49	-16	-276	-19	1	4	-71	-82	-41	-19	-65.8061481754036350367	-77.1102014315928698807	-47.1478634765498654247	-23.7271339367572196011
5.0.14.0	win	042919	14:47:00	008	1	game	3	iti	32	1	8	8	0	0	2000	292	4	1	4	-19	-50	-84	-49	-19	-276	-19	1	4	-71	-82	-41	-19	-65.8061481754036350367	-77.1102014315928698807	-47.1478634765498654247	-23.7271339367572196011
5.0.14.0	win	042919	14:47:00	008	1	game	3	selection	33	1	9	9	0	slot4	131	131	4	1	4	-19	-50	-84	-49	-19	-311	-35	1	4	-72	-80	-41	-35	-68.6899373512341924197	-76.9375993427909179445	-46.3190585437347053244	-24.4686972825954818234
5.0.14.0	win	042919	14:47:00	008	1	game	3	iti	36	1	9	9	0	0	2000	131	4	1	4	-35	-50	-84	-49	-35	-311	-35	1	4	-72	-80	-41	-35	-68.6899373512341924197	-76.9375993427909179445	-46.3190585437347053244	-24.4686972825954818234
5.0.14.0	win	042919	14:47:00	008	1	game	3	selection	37	1	10	10	0	slot4	406	406	4	1	4	-35	-50	-84	-49	-35	-335	-24	1	4	-73	-74	-43	-24	-66.6549067462737951928	-73.6033283443600510054	-46.370495689746249468	-22.7164391065260069524
5.0.14.0	win	042919	14:47:00	008	1	game	3	iti	40	1	10	10	0	0	2000	406	4	1	4	-24	-50	-84	-49	-24	-335	-24	1	4	-73	-74	-43	-24	-66.6549067462737951928	-73.6033283443600510054	-46.370495689746249468	-22.7164391065260069524
5.0.14.0	win	042919	14:47:00	008	1	game	3	selection	41	1	11	11	0	slot4	461	461	4	1	4	-24	-50	-84	-49	-24	-356	-21	1	4	-56	-68	-48	-21	-60.9890538731173492693	-70.2956590571856025917	-45.9441606129519044543	-21.502336051009489637
5.0.14.0	win	042919	14:47:00	008	1	game	3	iti	44	1	11	11	0	0	2000	461	4	1	4	-21	-50	-84	-49	-21	-356	-21	1	4	-56	-68	-48	-21	-60.9890538731173492693	-70.2956590571856025917	-45.9441606129519044543	-21.502336051009489637
5.0.14.0	win	042919	14:47:00	008	1	game	3	selection	45	1	12	12	0	slot4	293	293	4	1	4	-21	-50	-84	-49	-21	-379	-23	1	4	-65	-66	-43	-23	-61.5165518395989252554	-72.4379317115295293661	-44.1117822808556780956	-21.6899335175815721755
5.0.14.0	win	042919	14:47:00	008	1	game	3	iti	48	1	12	12	0	0	2000	293	4	1	4	-23	-50	-84	-49	-23	-379	-23	1	4	-65	-66	-43	-23	-61.5165518395989252554	-72.4379317115295293661	-44.1117822808556780956	-21.6899335175815721755
5.0.14.0	win	042919	14:47:00	008	1	game	3	selection	49	1	13	13	0	slot4	251	251	4	1	4	-23	-50	-84	-49	-23	-399	-20	1	4	-64	-76	-48	-20	-65.1151186169682887339	-76.3789396298870570945	-46.3258998325496733628	-20.8302024948072528332
5.0.14.0	win	042919	14:47:00	008	1	game	3	iti	52	1	13	13	0	0	2000	251	4	1	4	-20	-50	-84	-49	-20	-399	-20	1	4	-64	-76	-48	-20	-65.1151186169682887339	-76.3789396298870570945	-46.3258998325496733628	-20.8302024948072528332
5.0.14.0	win	042919	14:47:00	008	1	game	3	selection	53	1	14	14	0	slot4	659	659	4	1	4	-20	-50	-84	-49	-20	-432	-33	1	4	-57	-80	-40	-33	-66.0329375234702808939	-76.7040889614400782648	-44.7076061850586796709	-25.5232063917241553952
5.0.14.0	win	042919	14:47:00	008	1	game	3	iti	56	1	14	14	0	0	2000	659	4	1	4	-33	-50	-84	-49	-33	-432	-33	1	4	-57	-80	-40	-33	-66.0329375234702808939	-76.7040889614400782648	-44.7076061850586796709	-25.5232063917241553952
5.0.14.0	win	042919	14:47:00	008	1	game	3	selection	57	1	15	15	0	slot4	596	596	4	1	4	-33	-50	-84	-49	-33	-462	-30	1	4	-78	-68	-52	-30	-71.1034043232098724729	-71.9444138974579772139	-45.7517136700080442324	-28.1658660164820524585
5.0.14.0	win	042919	14:47:00	008	1	game	3	iti	60	1	15	15	0	0	2000	596	4	1	4	-30	-50	-84	-49	-30	-462	-30	1	4	-78	-68	-52	-30	-71.1034043232098724729	-71.9444138974579772139	-45.7517136700080442324	-28.1658660164820524585
5.0.14.0	win	042919	14:47:00	008	1	game	3	selection	61	1	16	16	0	slot3	374	374	3	2	4	-30	-50	-84	-49	-30	-507	-45	2	4	-69	-64	-45	-27	-68.0987143246444901479	-64.1039867789774433504	-44.453916191185932405	-26.9676527214120795861
5.0.14.0	win	042919	14:47:00	008	1	game	3	iti	64	1	16	16	0	0	2000	374	3	2	4	-30	-50	-84	-45	-30	-507	-45	2	4	-69	-64	-45	-27	-68.0987143246444901479	-64.1039867789774433504	-44.453916191185932405	-26.9676527214120795861
5.0.14.0	win	042919	14:47:00	008	1	game	3	selection	65	1	17	17	0	slot2	289	289	2	2	4	-30	-50	-84	-45	-30	-569	-62	2	4	-77	-62	-52	-34	-69.0534949965753810375	-61.6522286734697999577	-49.7570144211560716485	-29.0097078014074689634
5.0.14.0	win	042919	14:47:00	008	1	game	3	iti	68	1	17	17	0	0	2000	289	2	2	4	-30	-50	-62	-45	-30	-569	-62	2	4	-77	-62	-52	-34	-69.0534949965753810375	-61.6522286734697999577	-49.7570144211560716485	-29.0097078014074689634
5.0.14.0	win	042919	14:47:00	008	1	game	3	selection	69	1	18	18	0	slot1	373	373	1	2	4	-30	-50	-62	-45	-30	-629	-60	2	4	-60	-49	-48	-38	-61.4081595385016427713	-62.2595945607992504733	-45.9431616759618393075	-33.6308316946064920216
5.0.14.0	win	042919	14:47:00	008	1	game	3	iti	72	1	18	18	0	0	2000	373	1	2	4	-30	-60	-62	-45	-30	-629	-60	2	4	-60	-49	-48	-38	-61.4081595385016427713	-62.2595945607992504733	-45.9431616759618393075	-33.6308316946064920216
5.0.14.0	win	042919	14:47:00	008	1	game	3	selection	73	1	19	19	0	slot1	392	392	1	2	4	-30	-60	-62	-45	-30	-690	-61	2	4	-61	-64	-40	-33	-58.1059609272746513398	-60.7640225059264551533	-43.1850981519036238865	-31.757567325449244322
5.0.14.0	win	042919	14:47:00	008	1	game	3	iti	76	1	19	19	0	0	2000	392	1	2	4	-30	-61	-62	-45	-30	-690	-61	2	4	-61	-64	-40	-33	-58.1059609272746513398	-60.7640225059264551533	-43.1850981519036238865	-31.757567325449244322
5.0.14.0	win	042919	14:47:00	008	1	game	3	selection	77	1	20	20	0	slot4	339	339	4	1	4	-30	-61	-62	-45	-30	-726	-36	1	4	-48	-71	-46	-36	-55.4160415336202163417	-65.9128404210370320015	-45.3416106751375380668	-33.1591852985659656383
5.0.14.0	win	042919	14:47:00	008	1	game	3	iti	80	1	20	20	0	0	2000	339	4	1	4	-36	-61	-62	-45	-36	-726	-36	1	4	-48	-71	-46	-36	-55.4160415336202163417	-65.9128404210370320015	-45.3416106751375380668	-33.1591852985659656383
5.0.14.0	win	042919	14:47:00	008	1	game	3	selection	81	1	21	21	0	slot3	282	282	3	2	4	-36	-61	-62	-45	-36	-777	-51	2	4	-59	-68	-51	-29	-54.5533499971605522205	-63.5024810304689140139	-45.6768731284296620743	-33.6616884080138873969
5.0.14.0	win	042919	14:47:00	008	1	game	3	iti	84	1	21	21	0	0	2000	282	3	2	4	-36	-61	-62	-51	-36	-777	-51	2	4	-59	-68	-51	-29	-54.5533499971605522205	-63.5024810304689140139	-45.6768731284296620743	-33.6616884080138873969
5.0.14.0	win	042919	14:47:00	008	1	game	3	selection	85	1	22	22	0	slot2	274	274	2	2	4	-36	-61	-62	-51	-36	-840	-63	2	4	-49	-63	-43	-29	-53.125203607430890429	-60.4204739848896323906	-39.0362031087158456444	-32.9163239536209104585
5.0.14.0	win	042919	14:47:00	008	1	game	3	iti	88	1	22	22	0	0	2000	274	2	2	4	-36	-61	-63	-51	-36	-840	-63	2	4	-49	-63	-43	-29	-53.125203607430890429	-60.4204739848896323906	-39.0362031087158456444	-32.9163239536209104585
5.0.14.0	win	042919	14:47:00	008	1	game	3	selection	89	1	23	23	0	slot4	799	799	4	1	4	-36	-61	-63	-51	-36	-881	-41	2	3	-54	-60	-40	-41	-49.9679420301570047513	-58.5392396156101639804	-40.276588690572530993	-35.095073701673285882
5.0.14.0	win	042919	14:47:00	008	1	game	3	iti	92	1	23	23	0	0	2000	799	4	1	4	-41	-61	-63	-51	-41	-881	-41	2	3	-54	-60	-40	-41	-49.9679420301570047513	-58.5392396156101639804	-40.276588690572530993	-35.095073701673285882
5.0.14.0	win	042919	14:47:00	008	1	game	3	selection	93	1	24	24	0	slot1	256	256	1	2	4	-41	-61	-63	-51	-41	-929	-48	2	3	-48	-63	-34	-41	-48.8136229238991461443	-61.656486295878913495	-36.8441420247057109805	-35.882825069120613648
5.0.14.0	win	042919	14:47:00	008	1	game	3	iti	96	1	24	24	0	0	2000	256	1	2	4	-41	-48	-63	-51	-41	-929	-48	2	3	-48	-63	-34	-41	-48.8136229238991461443	-61.656486295878913495	-36.8441420247057109805	-35.882825069120613648
5.0.14.0	win	042919	14:47:00	008	1	game	3	selection	97	1	25	25	0	slot4	371	371	4	1	4	-41	-48	-63	-51	-41	-964	-35	1	4	-52	-59	-39	-35	-51.1022580779974191501	-58.3523175053490774644	-39.5282006248024089246	-36.1477476071218930542
5.0.14.0	win	042919	14:47:00	008	1	game	3	iti	100	1	25	25	0	0	2000	371	4	1	4	-35	-48	-63	-51	-35	-964	-35	1	4	-52	-59	-39	-35	-51.1022580779974191501	-58.3523175053490774644	-39.5282006248024089246	-36.1477476071218930542
5.0.14.0	win	042919	14:47:00	008	1	game	3	selection	101	1	26	26	0	slot4	483	483	4	1	4	-35	-48	-63	-51	-35	-1006	-42	2	3	-47	-58	-36	-42	-50.2646288782074961432	-56.0381157832268570473	-36.981243354366220899	-36.5675118663336107261
5.0.14.0	win	042919	14:47:00	008	1	game	3	iti	104	1	26	26	0	0	2000	483	4	1	4	-42	-48	-63	-51	-42	-1006	-42	2	3	-47	-58	-36	-42	-50.2646288782074961432	-56.0381157832268570473	-36.981243354366220899	-36.5675118663336107261
5.0.14.0	win	042919	14:47:00	008	1	game	3	selection	105	1	27	27	0	slot4	338	338	4	1	4	-42	-48	-63	-51	-42	-1046	-40	2	3	-55	-52	-36	-40	-52.8705229934168556838	-57.3700510047737921582	-38.3765432344323897951	-39.6324130040881428272
5.0.14.0	win	042919	14:47:00	008	1	game	3	iti	108	1	27	27	0	0	2000	338	4	1	4	-40	-48	-63	-51	-40	-1046	-40	2	3	-55	-52	-36	-40	-52.8705229934168556838	-57.3700510047737921582	-38.3765432344323897951	-39.6324130040881428272
5.0.14.0	win	042919	14:47:00	008	1	game	3	selection	109	1	28	28	0	slot4	379	379	4	1	4	-40	-48	-63	-51	-40	-1080	-34	1	4	-46	-55	-36	-34	-47.0420727200218138364	-52.0186161397286568331	-38.1006158548285469578	-36.8519907255407019875
5.0.14.0	win	042919	14:47:00	008	1	game	3	iti	112	1	28	28	0	0	2000	379	4	1	4	-34	-48	-63	-51	-34	-1080	-34	1	4	-46	-55	-36	-34	-47.0420727200218138364	-52.0186161397286568331	-38.1006158548285469578	-36.8519907255407019875
5.0.14.0	win	042919	14:47:00	008	1	game	3	selection	113	1	29	29	0	slot4	377	377	4	1	4	-34	-48	-63	-51	-34	-1113	-33	1	4	-45	-57	-34	-33	-50.6397445455757306831	-51.9225017021343120405	-41.1580772123120581796	-34.5664401498676028268
5.0.14.0	win	042919	14:47:00	008	1	game	3	iti	116	1	29	29	0	0	2000	377	4	1	4	-33	-48	-63	-51	-33	-1113	-33	1	4	-45	-57	-34	-33	-50.6397445455757306831	-51.9225017021343120405	-41.1580772123120581796	-34.5664401498676028268
5.0.14.0	win	042919	14:47:00	008	1	game	3	selection	117	1	30	30	0	slot4	458	458	4	1	4	-33	-48	-63	-51	-33	-1150	-37	1	4	-46	-51	-39	-37	-48.4427089056609432305	-54.5696394025942197459	-39.7428672842437009649	-32.9182607444000154828
5.0.14.0	win	042919	14:47:00	008	1	game	3	iti	120	1	30	30	0	0	2000	458	4	1	4	-37	-48	-63	-51	-37	-1150	-37	1	4	-46	-51	-39	-37	-48.4427089056609432305	-54.5696394025942197459	-39.7428672842437009649	-32.9182607444000154828
5.0.14.0	win	042919	14:47:00	008	1	game	3	selection	121	1	31	31	0	slot4	334	334	4	1	4	-37	-48	-63	-51	-37	-1185	-35	1	4	-48	-61	-49	-35	-49.6878737253423423681	-58.0652505095853115336	-44.2384155893347923438	-33.8385873084184325421
5.0.14.0	win	042919	14:47:00	008	1	game	3	iti	124	1	31	31	0	0	2000	334	4	1	4	-35	-48	-63	-51	-35	-1185	-35	1	4	-48	-61	-49	-35	-49.6878737253423423681	-58.0652505095853115336	-44.2384155893347923438	-33.8385873084184325421
5.0.14.0	win	042919	14:47:00	008	1	game	3	selection	125	1	32	32	0	slot4	245	245	4	1	4	-35	-48	-63	-51	-35	-1220	-35	1	4	-45	-58	-44	-35	-47.9054128600687221251	-57.9763525705317590564	-42.8797496948038485698	-35.1813615612534462684
5.0.14.0	win	042919	14:47:00	008	1	game	3	iti	128	1	32	32	0	0	2000	245	4	1	4	-35	-48	-63	-51	-35	-1220	-35	1	4	-45	-58	-44	-35	-47.9054128600687221251	-57.9763525705317590564	-42.8797496948038485698	-35.1813615612534462684
5.0.14.0	win	042919	14:47:00	008	1	game	3	selection	129	1	33	33	0	slot4	93	93	4	1	4	-35	-48	-63	-51	-35	-1253	-33	1	4	-39	-61	-35	-33	-47.5585780045566366425	-60.4641719082915685135	-41.0952600002847034943	-31.5401527082808286195
5.0.14.0	win	042919	14:47:00	008	1	game	3	iti	132	1	33	33	0	0	2000	93	4	1	4	-33	-48	-63	-51	-33	-1253	-33	1	4	-39	-61	-35	-33	-47.5585780045566366425	-60.4641719082915685135	-41.0952600002847034943	-31.5401527082808286195
5.0.14.0	win	042919	14:47:00	008	1	game	3	selection	133	1	34	34	0	slot4	261	261	4	1	4	-33	-48	-63	-51	-33	-1283	-30	1	4	-42	-60	-36	-30	-47.2505740804694340795	-58.5374987542755249592	-38.2107617473876288727	-29.9844525481652119936
5.0.14.0	win	042919	14:47:00	008	1	game	3	iti	136	1	34	34	0	0	2000	261	4	1	4	-30	-48	-63	-51	-30	-1283	-30	1	4	-42	-60	-36	-30	-47.2505740804694340795	-58.5374987542755249592	-38.2107617473876288727	-29.9844525481652119936
5.0.14.0	win	042919	14:47:00	008	1	game	3	selection	137	1	35	35	0	slot4	958	958	4	1	4	-30	-48	-63	-51	-30	-1324	-41	2	3	-47	-62	-36	-41	-45.1424112860085671173	-61.4679455244565176031	-36.4233231772590642095	-33.7683460120710421393
5.0.14.0	win	042919	14:47:00	008	1	game	3	iti	140	1	35	35	0	0	2000	958	4	1	4	-41	-48	-63	-51	-41	-1324	-41	2	3	-47	-62	-36	-41	-45.1424112860085671173	-61.4679455244565176031	-36.4233231772590642095	-33.7683460120710421393
5.0.14.0	win	042919	14:47:00	008	1	game	3	selection	141	1	36	36	0	slot4	467	467	4	1	4	-41	-48	-63	-51	-41	-1353	-29	2	3	-48	-60	-27	-29	-50.5574139805326225883	-62.0862355019524443378	-33.7162957094911348577	-33.3439874168494938544
5.0.14.0	win	042919	14:47:00	008	1	game	3	iti	144	1	36	36	0	0	2000	467	4	1	4	-29	-48	-63	-51	-29	-1353	-29	2	3	-48	-60	-27	-29	-50.5574139805326225883	-62.0862355019524443378	-33.7162957094911348577	-33.3439874168494938544
5.0.14.0	win	042919	14:47:00	008	1	game	3	selection	145	1	37	37	0	slot4	401	401	4	1	4	-29	-48	-63	-51	-29	-1390	-37	2	3	-53	-66	-35	-37	-53.4219866138547843093	-65.9602319978484672447	-37.7354305345538847405	-34.6213583039546932696
5.0.14.0	win	042919	14:47:00	008	1	game	3	iti	148	1	37	37	0	0	2000	401	4	1	4	-37	-48	-63	-51	-37	-1390	-37	2	3	-53	-66	-35	-37	-53.4219866138547843093	-65.9602319978484672447	-37.7354305345538847405	-34.6213583039546932696
5.0.14.0	win	042919	14:47:00	008	1	game	3	selection	149	1	38	38	0	slot4	376	376	4	1	4	-37	-48	-63	-51	-37	-1426	-36	1	4	-49	-63	-44	-36	-52.1506691439402203514	-63.4328248008760695598	-39.6780592189226553046	-37.0273904075364654886
5.0.14.0	win	042919	14:47:00	008	1	game	3	iti	152	1	38	38	0	0	2000	376	4	1	4	-36	-48	-63	-51	-36	-1426	-36	1	4	-49	-63	-44	-36	-52.1506691439402203514	-63.4328248008760695598	-39.6780592189226553046	-37.0273904075364654886
5.0.14.0	win	042919	14:47:00	008	1	game	3	selection	153	1	39	39	0	slot4	408	408	4	1	4	-36	-48	-63	-51	-36	-1468	-42	2	3	-53	-67	-39	-42	-52.399058381212967106	-64.4757295778578196632	-43.1914747191536463333	-40.3287656008100583449
5.0.14.0	win	042919	14:47:00	008	1	game	3	iti	156	1	39	39	0	0	2000	408	4	1	4	-42	-48	-63	-51	-42	-1468	-42	2	3	-53	-67	-39	-42	-52.399058381212967106	-64.4757295778578196632	-43.1914747191536463333	-40.3287656008100583449
5.0.14.0	win	042919	14:47:00	008	1	game	3	selection	157	1	40	40	0	slot4	245	245	4	1	4	-42	-48	-63	-51	-42	-1511	-43	1	4	-49	-63	-46	-43	-49.8983595504024464162	-60.5967251921482628063	-43.1503986078052648168	-43.0421087831351130149
5.0.14.0	win	042919	14:47:00	008	1	game	3	iti	160	1	40	40	0	0	2000	245	4	1	4	-43	-48	-63	-51	-43	-1511	-43	1	4	-49	-63	-46	-43	-49.8983595504024464162	-60.5967251921482628063	-43.1503986078052648168	-43.0421087831351130149
5.0.14.0	win	042919	14:47:00	008	1	game	3	selection	161	1	41	41	0	slot4	280	280	4	1	4	-43	-48	-63	-51	-43	-1559	-48	2	3	-52	-49	-44	-48	-44.7173435593041119773	-58.3718083837241366041	-40.3667671676922168444	-46.6830765784406125363
5.0.14.0	win	042919	14:47:00	008	1	game	3	iti	164	1	41	41	0	0	2000	280	4	1	1	-48	-48	-63	-51	-48	-1559	-48	2	3	-52	-49	-44	-48	-44.7173435593041119773	-58.3718083837241366041	-40.3667671676922168444	-46.6830765784406125363
5.0.14.0	win	042919	14:47:00	008	1	game	3	selection	165	1	42	42	0	slot4	359	359	4	2	1	-48	-48	-63	-51	-48	-1608	-49	2	3	-48	-58	-44	-49	-46.0075239926128460866	-55.6793646295358328757	-39.3263484263488507509	-46.583993474448732286
5.0.14.0	win	042919	14:47:00	008	1	game	3	iti	168	1	42	42	0	0	2000	359	4	2	1	-48	-48	-63	-51	-49	-1608	-49	2	3	-48	-58	-44	-49	-46.0075239926128460866	-55.6793646295358328757	-39.3263484263488507509	-46.583993474448732286
5.0.14.0	win	042919	14:47:00	008	1	game	3	selection	169	1	43	43	0	slot4	452	452	4	2	1	-48	-48	-63	-51	-49	-1663	-55	2	1	-40	-61	-46	-55	-46.2338602035122647749	-56.1249444711154694687	-44.0146934223156733879	-47.9210487126310411554
5.0.14.0	win	042919	14:47:00	008	1	game	3	iti	172	1	43	43	0	0	2000	452	4	2	1	-48	-48	-63	-51	-55	-1663	-55	2	1	-40	-61	-46	-55	-46.2338602035122647749	-56.1249444711154694687	-44.0146934223156733879	-47.9210487126310411554
5.0.14.0	win	042919	14:47:00	008	1	game	3	selection	173	1	44	44	0	slot3	39	39	3	2	1	-48	-48	-63	-51	-55	-1716	-53	2	1	-45	-66	-53	-47	-46.0552089451568349432	-58.5903983744610670215	-49.5691263766722798323	-45.7778012457143006486
5.0.14.0	win	042919	14:47:00	008	1	game	3	iti	176	1	44	44	0	0	2000	39	3	2	1	-48	-48	-63	-53	-55	-1716	-53	2	1	-45	-66	-53	-47	-46.0552089451568349432	-58.5903983744610670215	-49.5691263766722798323	-45.7778012457143006486
5.0.14.0	win	042919	14:47:00	008	1	game	3	selection	177	1	45	45	0	slot2	35	35	2	2	1	-48	-48	-63	-53	-55	-1777	-61	2	4	-55	-61	-59	-53	-45.5927485600662620868	-59.4981730097140584235	-51.988062828901739465	-45.2762811988888174142
5.0.14.0	win	042919	14:47:00	008	1	game	3	iti	180	1	45	45	0	0	2000	35	2	2	1	-48	-48	-61	-53	-55	-1777	-61	2	4	-55	-61	-59	-53	-45.5927485600662620868	-59.4981730097140584235	-51.988062828901739465	-45.2762811988888174142
5.0.14.0	win	042919	14:47:00	008	1	game	3	selection	181	1	46	46	0	slot1	329	329	1	1	1	-48	-48	-61	-53	-55	-1824	-47	2	3	-47	-66	-43	-52	-45.2587464400748515914	-60.9546474438670244922	-52.1477971167460481183	-43.297546112242976335
5.0.14.0	win	042919	14:47:00	008	1	game	3	iti	184	1	46	46	0	0	2000	329	1	1	1	-47	-47	-61	-53	-55	-1824	-47	2	3	-47	-66	-43	-52	-45.2587464400748515914	-60.9546474438670244922	-52.1477971167460481183	-43.297546112242976335
5.0.14.0	win	042919	14:47:00	008	1	game	3	selection	185	1	47	47	0	slot3	412	412	3	2	1	-47	-47	-61	-53	-55	-1883	-59	2	4	-52	-58	-59	-41	-43.8936089851792559102	-57.899651459013661281	-53.8979658098517830922	-43.9379113355383168482
5.0.14.0	win	042919	14:47:00	008	1	game	3	iti	188	1	47	47	0	0	2000	412	3	2	1	-47	-47	-61	-59	-55	-1883	-59	2	4	-52	-58	-59	-41	-43.8936089851792559102	-57.899651459013661281	-53.8979658098517830922	-43.9379113355383168482
5.0.14.0	win	042919	14:47:00	008	1	game	3	selection	189	1	48	48	1	0	1500	1500	0	0	1	-47	-47	-61	-59	-55	-1883	0	0	4	-43	-60	-61	-40	-44.7661417904971585813	-60.3210584376738552237	-60.6885919270756204469	-37.6477005312254817682
5.0.14.0	win	042919	14:47:00	008	1	game	3	iti	191	1	48	48	1	0	2000	1500	0	0	1	-47	-47	-61	-59	-55	-1883	0	0	4	-43	-60	-61	-40	-44.7661417904971585813	-60.3210584376738552237	-60.6885919270756204469	-37.6477005312254817682
5.0.14.0	win	042919	14:47:00	008	1	game	3	selection	192	1	49	49	1	slot4	312	312	4	2	1	-47	-47	-61	-59	-55	-1915	-32	1	4	-42	-64	-50	-32	-44.2766631581885832247	-64.6672463802909760489	-56.1575207808353411565	-35.1723700393716001145
5.0.14.0	win	042919	14:47:00	008	1	game	3	iti	195	1	49	49	1	0	2000	312	4	2	4	-32	-47	-61	-59	-32	-1915	-32	1	4	-42	-64	-50	-32	-44.2766631581885832247	-64.6672463802909760489	-56.1575207808353411565	-35.1723700393716001145
5.0.14.0	win	042919	14:47:00	008	1	game	3	selection	196	1	50	50	1	slot4	453	453	4	1	4	-32	-47	-61	-59	-32	-1951	-36	1	4	-43	-72	-50	-36	-49.8485551219300901948	-67.8629931061806814796	-55.5838409999278155738	-37.0036991819733032116
5.0.14.0	win	042919	14:47:00	008	1	game	3	iti	199	1	50	50	1	0	2000	453	4	1	4	-36	-47	-61	-59	-36	-1951	-36	1	4	-43	-72	-50	-36	-49.8485551219300901948	-67.8629931061806814796	-55.5838409999278155738	-37.0036991819733032116
5.0.14.0	win	042919	14:47:00	008	1	game	3	selection	200	1	51	51	1	slot4	443	443	4	1	4	-36	-47	-61	-59	-36	-1980	-29	1	4	-48	-76	-57	-29	-49.5468617455650814918	-68.4659046561158248778	-56.2010732943551332141	-34.4655872027582859118
5.0.14.0	win	042919	14:47:00	008	1	game	3	iti	203	1	51	51	1	0	2000	443	4	1	4	-29	-47	-61	-59	-29	-1980	-29	1	4	-48	-76	-57	-29	-49.5468617455650814918	-68.4659046561158248778	-56.2010732943551332141	-34.4655872027582859118
5.0.14.0	win	042919	14:47:00	008	1	game	3	selection	204	1	52	52	1	slot4	409	409	4	1	4	-29	-47	-61	-59	-29	-2020	-40	1	4	-55	-79	-51	-40	-50.1931626905363970081	-73.1828896926567722403	-57.1250487208717885323	-36.0261242209845562456
5.0.14.0	win	042919	14:47:00	008	1	game	3	iti	207	1	52	52	1	0	2000	409	4	1	4	-40	-47	-61	-59	-40	-2020	-40	1	4	-55	-79	-51	-40	-50.1931626905363970081	-73.1828896926567722403	-57.1250487208717885323	-36.0261242209845562456
5.0.14.0	win	042919	14:47:00	008	1	game	3	selection	208	1	53	53	1	slot4	686	686	4	1	4	-40	-47	-61	-59	-40	-2050	-30	1	4	-43	-74	-63	-30	-48.8933203664474476113	-79.7977750293727439157	-59.7036769952079993118	-35.9933729210831288015
5.0.14.0	win	042919	14:47:00	008	1	game	3	iti	211	1	53	53	1	0	2000	686	4	1	4	-30	-47	-61	-59	-30	-2050	-30	1	4	-43	-74	-63	-30	-48.8933203664474476113	-79.7977750293727439157	-59.7036769952079993118	-35.9933729210831288015
5.0.14.0	win	042919	14:47:00	008	1	game	3	selection	212	1	54	54	1	slot4	398	398	4	1	4	-30	-47	-61	-59	-30	-2080	-30	1	4	-46	-79	-62	-30	-49.9405301532186882696	-85.7683027564132061116	-59.3055026567169036866	-29.6939410445683407147
5.0.14.0	win	042919	14:47:00	008	1	game	3	iti	215	1	54	54	1	0	2000	398	4	1	4	-30	-47	-61	-59	-30	-2080	-30	1	4	-46	-79	-62	-30	-49.9405301532186882696	-85.7683027564132061116	-59.3055026567169036866	-29.6939410445683407147
5.0.14.0	win	042919	14:47:00	008	1	game	3	selection	216	1	55	55	1	slot4	318	318	4	1	4	-30	-47	-61	-59	-30	-2113	-33	1	4	-49	-79	-55	-33	-45.5946634489534190493	-84.4291440235314212259	-56.1144655969858305866	-34.5466703113680253523
5.0.14.0	win	042919	14:47:00	008	1	game	3	iti	219	1	55	55	1	0	2000	318	4	1	4	-33	-47	-61	-59	-33	-2113	-33	1	4	-49	-79	-55	-33	-45.5946634489534190493	-84.4291440235314212259	-56.1144655969858305866	-34.5466703113680253523
5.0.14.0	win	042919	14:47:00	008	1	game	3	selection	220	1	56	56	1	slot4	255	255	4	1	4	-33	-47	-61	-59	-33	-2151	-38	1	4	-49	-79	-55	-38	-49.0824937525704712016	-79.2465353500565896638	-54.0173457584168446033	-36.688852879114300265
5.0.14.0	win	042919	14:47:00	008	1	game	3	iti	223	1	56	56	1	0	2000	255	4	1	4	-38	-47	-61	-59	-38	-2151	-38	1	4	-49	-79	-55	-38	-49.0824937525704712016	-79.2465353500565896638	-54.0173457584168446033	-36.688852879114300265
5.0.14.0	win	042919	14:47:00	008	1	game	3	selection	224	1	57	57	1	slot4	299	299	4	1	4	-38	-47	-61	-59	-38	-2188	-37	1	4	-46	-72	-39	-37	-46.2625619731996664541	-76.3120328051755620891	-49.6057057457343972828	-36.765342817686992305
5.0.14.0	win	042919	14:47:00	008	1	game	3	iti	227	1	57	57	1	0	2000	299	4	1	4	-37	-47	-61	-59	-37	-2188	-37	1	4	-46	-72	-39	-37	-46.2625619731996664541	-76.3120328051755620891	-49.6057057457343972828	-36.765342817686992305
5.0.14.0	win	042919	14:47:00	008	1	game	3	selection	228	1	58	58	2	0	1500	1500	0	0	4	-37	-47	-61	-59	-37	-2188	0	0	4	-47	-85	-53	-38	-41.6122468067176072282	-78.4752297503127920208	-48.3770522710382522291	-33.5455098293562485878
5.0.14.0	win	042919	14:47:00	008	1	game	3	iti	230	1	58	58	2	0	2000	1500	0	0	4	-37	-47	-61	-59	-37	-2188	0	0	4	-47	-85	-53	-38	-41.6122468067176072282	-78.4752297503127920208	-48.3770522710382522291	-33.5455098293562485878
5.0.14.0	win	042919	14:47:00	008	1	game	3	selection	231	1	59	59	2	slot4	276	276	4	1	4	-37	-47	-61	-59	-37	-2217	-29	1	4	-50	-75	-56	-29	-44.1965486624542265304	-74.3112278427688863758	-51.4634074893164665809	-27.7259765200745498248
5.0.14.0	win	042919	14:47:00	008	1	game	3	iti	234	1	59	59	2	0	2000	276	4	1	4	-29	-47	-61	-59	-29	-2217	-29	1	4	-50	-75	-56	-29	-44.1965486624542265304	-74.3112278427688863758	-51.4634074893164665809	-27.7259765200745498248
5.0.14.0	win	042919	14:47:00	008	1	game	3	selection	235	1	60	60	2	slot4	410	410	4	1	4	-29	-47	-61	-59	-29	-2251	-34	1	4	-45	-73	-39	-34	-40.27140709003387542	-69.8836799826422492288	-50.0173219622166200793	-29.8954501038980069438
5.0.14.0	win	042919	14:47:00	008	1	game	3	iti	238	1	60	60	2	0	2000	410	4	1	4	-34	-47	-61	-59	-34	-2251	-34	1	4	-45	-73	-39	-34	-40.27140709003387542	-69.8836799826422492288	-50.0173219622166200793	-29.8954501038980069438
5.0.14.0	win	042919	14:47:00	008	1	game	3	selection	239	1	61	61	2	slot4	353	353	4	1	4	-34	-47	-61	-59	-34	-2282	-31	1	4	-41	-76	-40	-31	-42.695294601224162534	-69.9548981178285345095	-46.0055519862303441414	-31.0589916621009365372
5.0.14.0	win	042919	14:47:00	008	1	game	3	iti	242	1	61	61	2	0	2000	353	4	1	4	-31	-47	-61	-59	-31	-2282	-31	1	4	-41	-76	-40	-31	-42.695294601224162534	-69.9548981178285345095	-46.0055519862303441414	-31.0589916621009365372
5.0.14.0	win	042919	14:47:00	008	1	game	3	selection	243	1	62	62	2	slot4	384	384	4	1	4	-31	-47	-61	-59	-31	-2310	-28	1	4	-43	-79	-51	-28	-45.3212932098187977203	-73.2305820508108382683	-48.9051892320189836028	-29.9555851966566137889
5.0.14.0	win	042919	14:47:00	008	1	game	3	iti	246	1	62	62	2	0	2000	384	4	1	4	-28	-47	-61	-59	-28	-2310	-28	1	4	-43	-79	-51	-28	-45.3212932098187977203	-73.2305820508108382683	-48.9051892320189836028	-29.9555851966566137889
5.0.14.0	win	042919	14:47:00	008	1	game	3	selection	247	1	63	63	2	slot4	587	587	4	1	4	-28	-47	-61	-59	-28	-2344	-34	1	4	-46	-73	-52	-34	-48.2429735972443012315	-77.2369473388616825105	-49.134070535604344343	-31.2955805176031063297
5.0.14.0	win	042919	14:47:00	008	1	game	3	iti	250	1	63	63	2	0	2000	587	4	1	4	-34	-47	-61	-59	-34	-2344	-34	1	4	-46	-73	-52	-34	-48.2429735972443012315	-77.2369473388616825105	-49.134070535604344343	-31.2955805176031063297
5.0.14.0	win	042919	14:47:00	008	1	game	3	selection	251	1	64	64	2	slot4	358	358	4	1	4	-34	-47	-61	-59	-34	-2372	-28	1	4	-42	-75	-47	-28	-43.6526596957168138147	-75.1155392993595967255	-49.199355048881635355	-29.7821495211201927589
5.0.14.0	win	042919	14:47:00	008	1	game	3	iti	254	1	64	64	2	0	2000	358	4	1	4	-28	-47	-61	-59	-28	-2372	-28	1	4	-42	-75	-47	-28	-43.6526596957168138147	-75.1155392993595967255	-49.199355048881635355	-29.7821495211201927589
5.0.14.0	win	042919	14:47:00	008	1	game	3	selection	255	1	65	65	2	slot4	261	261	4	1	4	-28	-47	-61	-59	-28	-2396	-24	1	4	-35	-76	-41	-24	-38.6106967903689763943	-73.2086375583419055602	-44.8403327739279191633	-32.2629607776578808398
5.0.14.0	win	042919	14:47:00	008	1	game	3	iti	258	1	65	65	2	0	2000	261	4	1	4	-24	-47	-61	-59	-24	-2396	-24	1	4	-35	-76	-41	-24	-38.6106967903689763943	-73.2086375583419055602	-44.8403327739279191633	-32.2629607776578808398
5.0.14.0	win	042919	14:47:00	008	1	game	3	selection	259	1	66	66	2	slot4	284	284	4	1	4	-24	-47	-61	-59	-24	-2427	-31	1	4	-45	-72	-47	-31	-41.0855864928599459063	-75.516154802560834014	-45.426774713271363737	-33.7159668043208711197
5.0.14.0	win	042919	14:47:00	008	1	game	3	iti	262	1	66	66	2	0	2000	284	4	1	4	-31	-47	-61	-59	-31	-2427	-31	1	4	-45	-72	-47	-31	-41.0855864928599459063	-75.516154802560834014	-45.426774713271363737	-33.7159668043208711197
5.0.14.0	win	042919	14:47:00	008	1	game	3	selection	263	1	67	67	2	slot4	89	89	4	1	4	-31	-47	-61	-59	-31	-2464	-37	1	4	-39	-70	-46	-37	-38.1572604766448648661	-75.4787290694004582292	-45.2102791961208865246	-38.3272561092843560004
5.0.14.0	win	042919	14:47:00	008	1	game	3	iti	266	1	67	67	2	0	2000	89	4	1	4	-37	-47	-61	-59	-37	-2464	-37	1	4	-39	-70	-46	-37	-38.1572604766448648661	-75.4787290694004582292	-45.2102791961208865246	-38.3272561092843560004
5.0.14.0	win	042919	14:47:00	008	1	game	3	selection	267	1	68	68	2	slot4	454	454	4	1	4	-37	-47	-61	-59	-37	-2492	-28	1	4	-36	-76	-45	-28	-39.5850083844025988355	-77.2577292424849986219	-43.3746733638164698732	-39.3345816673871055968
5.0.14.0	win	042919	14:47:00	008	1	game	3	iti	270	1	68	68	2	0	2000	454	4	1	4	-28	-47	-61	-59	-28	-2492	-28	1	4	-36	-76	-45	-28	-39.5850083844025988355	-77.2577292424849986219	-43.3746733638164698732	-39.3345816673871055968
5.0.14.0	win	042919	14:47:00	008	1	game	3	selection	271	1	69	69	2	slot4	27	27	4	1	4	-28	-47	-61	-59	-28	-2528	-36	1	4	-45	-74	-42	-36	-41.4216676974620341412	-77.2087627867354200362	-39.1528946254687397754	-37.1313499742533679182
5.0.14.0	win	042919	14:47:00	008	1	game	3	iti	274	1	69	69	2	0	2000	27	4	1	4	-36	-47	-61	-59	-36	-2528	-36	1	4	-45	-74	-42	-36	-41.4216676974620341412	-77.2087627867354200362	-39.1528946254687397754	-37.1313499742533679182
5.0.14.0	win	042919	14:47:00	008	1	game	3	selection	275	1	70	70	2	slot4	541	541	4	1	4	-36	-47	-61	-59	-36	-2561	-33	1	4	-42	-73	-36	-33	-37.1264601880880604767	-78.5342187318727980028	-36.217460699203265051	-35.9970490247654737459
5.0.14.0	win	042919	14:47:00	008	1	game	3	iti	278	1	70	70	2	0	2000	541	4	1	4	-33	-47	-61	-59	-33	-2561	-33	1	4	-42	-73	-36	-33	-37.1264601880880604767	-78.5342187318727980028	-36.217460699203265051	-35.9970490247654737459
5.0.14.0	win	042919	14:47:00	008	1	game	3	selection	279	1	71	71	2	slot2	256	256	2	2	4	-33	-47	-61	-59	-33	-2643	-82	2	4	-39	-82	-42	-31	-37.960083904768787022	-76.4196080227669796159	-42.2821111506166715799	-34.4446294136920769802
5.0.14.0	win	042919	14:47:00	008	1	game	3	iti	282	1	71	71	2	0	2000	256	2	2	4	-33	-47	-82	-59	-33	-2643	-82	2	4	-39	-82	-42	-31	-37.960083904768787022	-76.4196080227669796159	-42.2821111506166715799	-34.4446294136920769802
5.0.14.0	win	042919	14:47:00	008	1	game	3	selection	283	1	72	72	2	slot3	275	275	3	2	4	-33	-47	-82	-59	-33	-2687	-44	2	4	-41	-79	-44	-33	-38.2799854404845589784	-75.7121132301479775606	-41.6746029540859481699	-34.0280822083749399098
5.0.14.0	win	042919	14:47:00	008	1	game	3	iti	286	1	72	72	2	0	2000	275	3	2	4	-33	-47	-82	-44	-33	-2687	-44	2	4	-41	-79	-44	-33	-38.2799854404845589784	-75.7121132301479775606	-41.6746029540859481699	-34.0280822083749399098
5.0.14.0	win	042919	14:47:00	008	1	game	3	selection	287	1	73	73	2	slot1	263	263	1	2	4	-33	-47	-82	-44	-33	-2724	-37	1	1	-37	-70	-45	-44	-36.0275103809984145187	-72.7879457979738475615	-46.6145119988463818572	-36.7958832611507986599
5.0.14.0	win	042919	14:47:00	008	1	game	3	iti	290	1	73	73	2	0	2000	263	1	2	4	-33	-37	-82	-44	-33	-2724	-37	1	1	-37	-70	-45	-44	-36.0275103809984145187	-72.7879457979738475615	-46.6145119988463818572	-36.7958832611507986599
5.0.14.0	win	042919	14:47:00	008	1	game	3	selection	291	1	74	74	2	slot1	497	497	1	2	4	-33	-37	-82	-44	-33	-2758	-34	2	4	-34	-76	-52	-29	-33.6901057819717806296	-72.918794788333428869	-48.6642946609222875054	-33.3850581928627221373
5.0.14.0	win	042919	14:47:00	008	1	game	3	iti	294	1	74	74	2	0	2000	497	1	2	4	-33	-34	-82	-44	-33	-2758	-34	2	4	-34	-76	-52	-29	-33.6901057819717806296	-72.918794788333428869	-48.6642946609222875054	-33.3850581928627221373
5.0.14.0	win	042919	14:47:00	008	1	game	3	selection	295	1	75	75	2	slot3	1116	1116	3	2	4	-33	-34	-82	-44	-33	-2812	-54	2	1	-27	-73	-54	-37	-30.5614969366070319268	-74.4745900762010393237	-51.6671112700522883188	-34.655207610504177751
5.0.14.0	win	042919	14:47:00	008	1	game	3	iti	298	1	75	75	2	0	2000	1116	3	2	4	-33	-34	-82	-54	-33	-2812	-54	2	1	-27	-73	-54	-37	-30.5614969366070319268	-74.4745900762010393237	-51.6671112700522883188	-34.655207610504177751
5.0.14.0	win	042919	14:47:00	008	1	game	3	selection	299	1	76	76	2	slot1	368	368	1	2	4	-33	-34	-82	-54	-33	-2841	-29	1	1	-29	-72	-53	-36	-33.1742788743080438962	-74.5130045622571941522	-48.6043673579998056766	-34.6755989512253890439
5.0.14.0	win	042919	14:47:00	008	1	game	3	iti	302	1	76	76	2	0	2000	368	1	2	1	-29	-29	-82	-54	-33	-2841	-29	1	1	-29	-72	-53	-36	-33.1742788743080438962	-74.5130045622571941522	-48.6043673579998056766	-34.6755989512253890439
5.0.14.0	win	042919	14:47:00	008	1	game	3	selection	303	1	77	77	2	slot1	118	118	1	1	1	-29	-29	-82	-54	-33	-2876	-35	1	1	-35	-76	-49	-37	-30.991829041501674169	-75.2335866318616837134	-47.0213053711619863861	-40.6148186437304516971
5.0.14.0	win	042919	14:47:00	008	1	game	3	iti	306	1	77	77	2	0	2000	118	1	1	4	-33	-35	-82	-54	-33	-2876	-35	1	1	-35	-76	-49	-37	-30.991829041501674169	-75.2335866318616837134	-47.0213053711619863861	-40.6148186437304516971
5.0.14.0	win	042919	14:47:00	008	1	game	3	selection	307	1	78	78	2	slot1	280	280	1	2	4	-33	-35	-82	-54	-33	-2912	-36	1	1	-36	-72	-49	-43	-31.0100872830307103811	-73.6320592538147451478	-46.9983040996182381832	-42.1198325209189903262
5.0.14.0	win	042919	14:47:00	008	1	game	3	iti	310	1	78	78	2	0	2000	280	1	2	4	-33	-36	-82	-54	-33	-2912	-36	1	1	-36	-72	-49	-43	-31.0100872830307103811	-73.6320592538147451478	-46.9983040996182381832	-42.1198325209189903262
5.0.14.0	win	042919	14:47:00	008	1	game	3	selection	311	1	79	79	2	slot1	405	405	1	2	4	-33	-36	-82	-54	-33	-2943	-31	1	1	-31	-71	-54	-44	-29.2720983858845364978	-70.1515494676898896387	-52.0215069525114728322	-47.1320990697102502054
5.0.14.0	win	042919	14:47:00	008	1	game	3	iti	314	1	79	79	2	0	2000	405	1	2	1	-31	-31	-82	-54	-33	-2943	-31	1	1	-31	-71	-54	-44	-29.2720983858845364978	-70.1515494676898896387	-52.0215069525114728322	-47.1320990697102502054
5.0.14.0	win	042919	14:47:00	008	1	game	3	selection	315	1	80	80	2	slot4	221	221	4	2	1	-31	-31	-82	-54	-33	-2989	-46	2	1	-34	-76	-45	-46	-30.7874349164853384764	-68.3139884823889929066	-50.8997014267450396119	-42.8576502711505682441
5.0.14.0	win	042919	14:47:00	008	1	game	3	iti	318	1	80	80	2	0	2000	221	4	2	1	-31	-31	-82	-54	-46	-2989	-46	2	1	-34	-76	-45	-46	-30.7874349164853384764	-68.3139884823889929066	-50.8997014267450396119	-42.8576502711505682441
5.0.14.0	win	042919	14:47:00	008	1	game	3	selection	319	1	81	81	2	slot1	419	419	1	1	1	-31	-31	-82	-54	-46	-3024	-35	1	1	-35	-70	-56	-49	-30.8183593694588431333	-68.4293496490968919943	-52.5936822360691422773	-47.750859819693026509
5.0.14.0	win	042919	14:47:00	008	1	game	3	iti	322	1	81	81	2	0	2000	419	1	1	1	-35	-35	-82	-54	-46	-3024	-35	1	1	-35	-70	-56	-49	-30.8183593694588431333	-68.4293496490968919943	-52.5936822360691422773	-47.750859819693026509
5.0.14.0	win	042919	14:47:00	008	1	game	3	selection	323	1	82	82	2	slot1	403	403	1	1	1	-35	-35	-82	-54	-46	-3056	-32	1	1	-32	-74	-54	-42	-26.005547766707845625	-64.9376630845719375884	-51.8993959276343233	-44.5826836475385164249
5.0.14.0	win	042919	14:47:00	008	1	game	3	iti	326	1	82	82	2	0	2000	403	1	1	1	-32	-32	-82	-54	-46	-3056	-32	1	1	-32	-74	-54	-42	-26.005547766707845625	-64.9376630845719375884	-51.8993959276343233	-44.5826836475385164249
5.0.14.0	win	042919	14:47:00	008	1	game	3	selection	327	1	83	83	2	slot4	276	276	4	2	1	-32	-32	-82	-54	-46	-3099	-43	2	1	-31	-70	-60	-43	-30.518863810363125566	-65.2072356364589467148	-52.9032815099340893994	-42.8877944869953751095
5.0.14.0	win	042919	14:47:00	008	1	game	3	iti	330	1	83	83	2	0	2000	276	4	2	1	-32	-32	-82	-54	-43	-3099	-43	2	1	-31	-70	-60	-43	-30.518863810363125566	-65.2072356364589467148	-52.9032815099340893994	-42.8877944869953751095
5.0.14.0	win	042919	14:47:00	008	1	game	3	selection	331	1	84	84	2	slot1	109	109	1	1	1	-32	-32	-82	-54	-43	-3138	-39	1	1	-39	-58	-44	-51	-33.2819425380758531219	-62.4653155672232145434	-49.7398944366317792287	-47.4404047102135066893
5.0.14.0	win	042919	14:47:00	008	1	game	3	iti	334	1	84	84	2	0	2000	109	1	1	1	-39	-39	-82	-54	-43	-3138	-39	1	1	-39	-58	-44	-51	-33.2819425380758531219	-62.4653155672232145434	-49.7398944366317792287	-47.4404047102135066893
5.0.14.0	win	042919	14:47:00	008	1	game	3	selection	335	1	85	85	2	slot4	439	439	4	2	1	-39	-39	-82	-54	-43	-3186	-48	2	1	-29	-59	-42	-48	-32.435835820010389341	-61.4871653848755741478	-47.2425465832522135656	-45.1931394428076558256
5.0.14.0	win	042919	14:47:00	008	1	game	3	iti	338	1	85	85	2	0	2000	439	4	2	1	-39	-39	-82	-54	-48	-3186	-48	2	1	-29	-59	-42	-48	-32.435835820010389341	-61.4871653848755741478	-47.2425465832522135656	-45.1931394428076558256
5.0.14.0	win	042919	14:47:00	008	1	game	3	selection	339	1	86	86	2	slot1	266	266	1	1	1	-39	-39	-82	-54	-48	-3225	-39	1	1	-39	-68	-50	-54	-33.6599231324429339907	-62.037461926629532627	-48.616778315539924904	-49.8262883195710415407
5.0.14.0	win	042919	14:47:00	008	1	game	3	iti	342	1	86	86	2	0	2000	266	1	1	1	-39	-39	-82	-54	-48	-3225	-39	1	1	-39	-68	-50	-54	-33.6599231324429339907	-62.037461926629532627	-48.616778315539924904	-49.8262883195710415407
5.0.14.0	win	042919	14:47:00	008	1	game	3	selection	343	1	87	87	2	slot1	313	313	1	1	1	-39	-39	-82	-54	-48	-3262	-37	1	1	-37	-61	-52	-45	-30.5539761327123358114	-59.5429188226380929905	-47.9834586025398692755	-48.269727635712541769
5.0.14.0	win	042919	14:47:00	008	1	game	3	iti	346	1	87	87	2	0	2000	313	1	1	1	-37	-37	-82	-54	-48	-3262	-37	1	1	-37	-61	-52	-45	-30.5539761327123358114	-59.5429188226380929905	-47.9834586025398692755	-48.269727635712541769
5.0.14.0	win	042919	14:47:00	008	1	game	3	selection	347	1	88	88	2	slot4	304	304	4	2	1	-37	-37	-82	-54	-48	-3306	-44	2	1	-33	-64	-48	-44	-33.0868643335836694064	-58.4726022294137663948	-46.4095290587043152186	-50.3550879176736145837
5.0.14.0	win	042919	14:47:00	008	1	game	3	iti	350	1	88	88	2	0	2000	304	4	2	1	-37	-37	-82	-54	-44	-3306	-44	2	1	-33	-64	-48	-44	-33.0868643335836694064	-58.4726022294137663948	-46.4095290587043152186	-50.3550879176736145837
5.0.14.0	win	042919	14:47:00	008	1	game	3	selection	351	1	89	89	2	slot1	277	277	1	1	1	-37	-37	-82	-54	-44	-3339	-33	1	1	-33	-53	-47	-55	-31.6400369321713554882	-52.5463383629627998062	-44.3246622521412945162	-54.4065286060868160689
5.0.14.0	win	042919	14:47:00	008	1	game	3	iti	354	1	89	89	2	0	2000	277	1	1	1	-33	-33	-82	-54	-44	-3339	-33	1	1	-33	-53	-47	-55	-31.6400369321713554882	-52.5463383629627998062	-44.3246622521412945162	-54.4065286060868160689
5.0.14.0	win	042919	14:47:00	008	1	game	3	selection	355	1	90	90	2	slot4	549	549	4	2	1	-33	-33	-82	-54	-44	-3389	-50	2	1	-30	-52	-44	-50	-31.7481522116555154867	-50.0195664815486438215	-47.8848929273437349252	-50.1294168483119975122
5.0.14.0	win	042919	14:47:00	008	1	game	3	iti	358	1	90	90	2	0	2000	549	4	2	1	-33	-33	-82	-54	-50	-3389	-50	2	1	-30	-52	-44	-50	-31.7481522116555154867	-50.0195664815486438215	-47.8848929273437349252	-50.1294168483119975122
5.0.14.0	win	042919	14:47:00	008	1	game	3	selection	359	1	91	91	2	slot1	54	54	1	1	1	-33	-33	-82	-54	-50	-3421	-32	1	1	-32	-53	-45	-47	-29.5707911056411880679	-52.8131545323185846996	-43.6630871756988909738	-45.9518116925172321885
5.0.14.0	win	042919	14:47:00	008	1	game	3	iti	362	1	91	91	2	0	2000	54	1	1	1	-32	-32	-82	-54	-50	-3421	-32	1	1	-32	-53	-45	-47	-29.5707911056411880679	-52.8131545323185846996	-43.6630871756988909738	-45.9518116925172321885
5.0.14.0	win	042919	14:47:00	008	1	game	3	selection	363	1	92	92	2	slot1	354	354	1	1	1	-32	-32	-82	-54	-50	-3453	-32	1	1	-32	-50	-54	-52	-27.911041199043932437	-52.0621072051850006801	-43.080884350828462459	-48.8947765946585661823
5.0.14.0	win	042919	14:47:00	008	1	game	3	iti	366	1	92	92	2	0	2000	354	1	1	1	-32	-32	-82	-54	-50	-3453	-32	1	1	-32	-50	-54	-52	-27.911041199043932437	-52.0621072051850006801	-43.080884350828462459	-48.8947765946585661823
5.0.14.0	win	042919	14:47:00	008	1	game	3	selection	367	1	93	93	2	slot1	1316	1316	1	1	1	-32	-32	-82	-54	-50	-3484	-31	1	1	-31	-60	-44	-50	-29.9939976273550463759	-53.9516906500064266083	-46.3157385058524013743	-50.5142588140573352007
5.0.14.0	win	042919	14:47:00	008	1	game	3	iti	370	1	93	93	2	0	2000	1316	1	1	1	-31	-31	-82	-54	-50	-3484	-31	1	1	-31	-60	-44	-50	-29.9939976273550463759	-53.9516906500064266083	-46.3157385058524013743	-50.5142588140573352007
5.0.14.0	win	042919	14:47:00	008	1	game	3	selection	371	1	94	94	2	slot1	289	289	1	1	1	-31	-31	-82	-54	-50	-3520	-36	1	1	-36	-46	-38	-52	-31.4230363746034910832	-49.0557785959109935447	-43.2849229679865246112	-49.4758789435548536062
5.0.14.0	win	042919	14:47:00	008	1	game	3	iti	374	1	94	94	2	0	2000	289	1	1	1	-36	-36	-82	-54	-50	-3520	-36	1	1	-36	-46	-38	-52	-31.4230363746034910832	-49.0557785959109935447	-43.2849229679865246112	-49.4758789435548536062
5.0.14.0	win	042919	14:47:00	008	1	game	3	selection	375	1	95	95	2	slot1	274	274	1	1	1	-36	-36	-82	-54	-50	-3547	-27	1	1	-27	-48	-33	-45	-30.3833306139598029461	-48.2382663362336998603	-41.9743362972006082146	-47.996942411697958164
5.0.14.0	win	042919	14:47:00	008	1	game	3	iti	378	1	95	95	2	0	2000	274	1	1	1	-27	-27	-82	-54	-50	-3547	-27	1	1	-27	-48	-33	-45	-30.3833306139598029461	-48.2382663362336998603	-41.9743362972006082146	-47.996942411697958164
5.0.14.0	win	042919	14:47:00	008	1	game	3	selection	379	1	96	96	2	slot4	298	298	4	2	1	-27	-27	-82	-54	-50	-3593	-46	2	1	-29	-51	-39	-46	-30.7432746802081737769	-49.3676635213743324471	-40.6498568673120814765	-48.2656234322661887859
5.0.14.0	win	042919	14:47:00	008	1	game	3	iti	382	1	96	96	2	0	2000	298	4	2	1	-27	-27	-82	-54	-46	-3593	-46	2	1	-29	-51	-39	-46	-30.7432746802081737769	-49.3676635213743324471	-40.6498568673120814765	-48.2656234322661887859
5.0.14.0	win	042919	14:47:00	008	1	game	3	selection	383	1	97	97	2	slot1	323	323	1	1	1	-27	-27	-82	-54	-46	-3627	-34	1	1	-34	-48	-43	-52	-33.7425953320721632167	-47.7903064474997592015	-40.3972113911719787893	-47.7464725019736135891
5.0.14.0	win	042919	14:47:00	008	1	game	3	iti	386	1	97	97	2	0	2000	323	1	1	1	-34	-34	-82	-54	-46	-3627	-34	1	1	-34	-48	-43	-52	-33.7425953320721632167	-47.7903064474997592015	-40.3972113911719787893	-47.7464725019736135891
5.0.14.0	win	042919	14:47:00	008	1	game	3	selection	387	1	98	98	2	slot1	387	387	1	1	1	-34	-34	-82	-54	-46	-3664	-37	1	1	-37	-54	-40	-45	-31.3182031886782219487	-51.0495919184974695781	-33.8876566935707757011	-48.2294814215179670214
5.0.14.0	win	042919	14:47:00	008	1	game	3	iti	390	1	98	98	2	0	2000	387	1	1	1	-37	-37	-82	-54	-46	-3664	-37	1	1	-37	-54	-40	-45	-31.3182031886782219487	-51.0495919184974695781	-33.8876566935707757011	-48.2294814215179670214
5.0.14.0	win	042919	14:47:00	008	1	game	3	selection	391	1	99	99	2	slot1	118	118	1	1	1	-37	-37	-82	-54	-46	-3690	-26	1	1	-26	-58	-35	-57	-29.2007437718070477217	-51.9737214383599734902	-35.6312110856736410369	-48.7246054268742554427
5.0.14.0	win	042919	14:47:00	008	1	game	3	iti	394	1	99	99	2	0	2000	118	1	1	1	-26	-26	-82	-54	-46	-3690	-26	1	1	-26	-58	-35	-57	-29.2007437718070477217	-51.9737214383599734902	-35.6312110856736410369	-48.7246054268742554427
5.0.14.0	win	042919	14:47:00	008	1	game	3	selection	395	1	100	100	2	slot1	340	340	1	1	1	-26	-26	-82	-54	-46	-3719	-29	1	1	-29	-50	-31	-47	-29.0700992781487279615	-51.5159326681696256856	-33.5716250820708452807	-48.0292210627449449589
5.0.14.0	win	042919	14:47:00	008	1	game	3	iti	398	1	100	100	2	0	2000	340	1	1	1	-29	-29	-82	-54	-46	-3719	-29	1	1	-29	-50	-31	-47	-29.0700992781487279615	-51.5159326681696256856	-33.5716250820708452807	-48.0292210627449449589
5.0.14.0	win	042919	14:47:00	008	1	game	3	selection	399	1	101	101	2	slot1	279	279	1	1	1	-29	-29	-82	-54	-46	-3745	-26	1	1	-26	-53	-31	-43	-26.7272842187441135309	-53.2679658262125812485	-33.6258823322214723817	-45.0498827683547062861
5.0.14.0	win	042919	14:47:00	008	1	game	3	iti	402	1	101	101	2	0	2000	279	1	1	1	-26	-26	-82	-54	-46	-3745	-26	1	1	-26	-53	-31	-43	-26.7272842187441135309	-53.2679658262125812485	-33.6258823322214723817	-45.0498827683547062861
5.0.14.0	win	042919	14:47:00	008	1	game	3	selection	403	1	102	102	2	slot1	79	79	1	1	1	-26	-26	-82	-54	-46	-3768	-23	1	1	-23	-51	-31	-45	-25.0287901873337865766	-54.1990566128127326806	-33.1402524361442942791	-44.5069842735293832447
5.0.14.0	win	042919	14:47:00	008	1	game	3	iti	406	1	102	102	2	0	2000	79	1	1	1	-23	-23	-82	-54	-46	-3768	-23	1	1	-23	-51	-31	-45	-25.0287901873337865766	-54.1990566128127326806	-33.1402524361442942791	-44.5069842735293832447
5.0.14.0	win	042919	14:47:00	008	1	game	3	selection	407	1	103	103	2	slot1	333	333	1	1	1	-23	-23	-82	-54	-46	-3797	-29	2	3	-29	-58	-24	-44	-26.4182878617418808176	-55.3881842049579731224	-31.2420356266933971767	-44.2369146581363352766
5.0.14.0	win	042919	14:47:00	008	1	game	3	iti	410	1	103	103	2	0	2000	333	1	1	1	-29	-29	-82	-54	-46	-3797	-29	2	3	-29	-58	-24	-44	-26.4182878617418808176	-55.3881842049579731224	-31.2420356266933971767	-44.2369146581363352766
5.0.14.0	win	042919	14:47:00	008	1	game	3	selection	411	1	104	104	2	slot1	323	323	1	1	1	-29	-29	-82	-54	-46	-3819	-22	1	1	-22	-64	-41	-46	-23.7064859400549607926	-57.2975143693469917139	-34.4754221492354062661	-41.2978802776103819383
5.0.14.0	win	042919	14:47:00	008	1	game	3	iti	414	1	104	104	2	0	2000	323	1	1	1	-22	-22	-82	-54	-46	-3819	-22	1	1	-22	-64	-41	-46	-23.7064859400549607926	-57.2975143693469917139	-34.4754221492354062661	-41.2978802776103819383
5.0.14.0	win	042919	14:47:00	008	1	game	3	selection	415	1	105	105	2	slot1	437	437	1	1	1	-22	-22	-82	-54	-46	-3842	-23	1	1	-23	-51	-34	-41	-25.3751076554566523669	-60.1188351840418491179	-34.9646538875267438584	-43.8619497541982710231
5.0.14.0	win	042919	14:47:00	008	1	game	3	iti	418	1	105	105	2	0	2000	437	1	1	1	-23	-23	-82	-54	-46	-3842	-23	1	1	-23	-51	-34	-41	-25.3751076554566523669	-60.1188351840418491179	-34.9646538875267438584	-43.8619497541982710231
5.0.14.0	win	042919	14:47:00	008	1	game	3	selection	419	1	106	106	2	slot1	358	358	1	1	1	-23	-23	-82	-54	-46	-3870	-28	1	1	-28	-52	-39	-44	-24.8263646920202525337	-55.6606565360679041987	-38.2114389975767849705	-38.4762596667043723642
5.0.14.0	win	042919	14:47:00	008	1	game	3	iti	422	1	106	106	2	0	2000	358	1	1	1	-28	-28	-82	-54	-46	-3870	-28	1	1	-28	-52	-39	-44	-24.8263646920202525337	-55.6606565360679041987	-38.2114389975767849705	-38.4762596667043723642
5.0.14.0	win	042919	14:47:00	008	1	game	3	selection	423	1	107	107	2	slot1	296	296	1	1	1	-28	-28	-82	-54	-46	-3904	-34	1	1	-34	-61	-49	-37	-28.2787687855011959925	-56.9335152492757003984	-44.0828358720625246292	-35.5612513457656831406
5.0.14.0	win	042919	14:47:00	008	1	game	3	iti	426	1	107	107	2	0	2000	296	1	1	1	-34	-34	-82	-54	-46	-3904	-34	1	1	-34	-61	-49	-37	-28.2787687855011959925	-56.9335152492757003984	-44.0828358720625246292	-35.5612513457656831406
5.0.14.0	win	042919	14:47:00	008	1	game	3	selection	427	1	108	108	2	slot1	318	318	1	1	1	-34	-34	-82	-54	-46	-3930	-26	1	1	-26	-55	-43	-35	-29.276684879611355683	-58.5551900063835830679	-45.5190171348636312132	-40.1821062337775387618
5.0.14.0	win	042919	14:47:00	008	1	game	3	iti	430	1	108	108	2	0	2000	318	1	1	1	-26	-26	-82	-54	-46	-3930	-26	1	1	-26	-55	-43	-35	-29.276684879611355683	-58.5551900063835830679	-45.5190171348636312132	-40.1821062337775387618
5.0.14.0	win	042919	14:47:00	008	1	game	3	selection	431	1	109	109	2	slot1	362	362	1	1	1	-26	-26	-82	-54	-46	-3963	-33	1	1	-33	-63	-46	-39	-30.3459890180795071046	-61.721139675294494964	-45.1915484953338904006	-44.0116650801905393564
5.0.14.0	win	042919	14:47:00	008	1	game	3	iti	434	1	109	109	2	0	2000	362	1	1	1	-33	-33	-82	-54	-46	-3963	-33	1	1	-33	-63	-46	-39	-30.3459890180795071046	-61.721139675294494964	-45.1915484953338904006	-44.0116650801905393564
5.0.14.0	win	042919	14:47:00	008	1	game	3	selection	435	1	110	110	2	slot1	403	403	1	1	1	-33	-33	-82	-54	-46	-3986	-23	1	1	-23	-68	-40	-46	-28.5078684795065377955	-64.4713243287591097896	-43.5442243399674566717	-41.6295277942296735318
5.0.14.0	win	042919	14:47:00	008	1	game	3	iti	438	1	110	110	2	0	2000	403	1	1	1	-23	-23	-82	-54	-46	-3986	-23	1	1	-23	-68	-40	-46	-28.5078684795065377955	-64.4713243287591097896	-43.5442243399674566717	-41.6295277942296735318
5.0.14.0	win	042919	14:47:00	008	1	game	3	selection	439	1	111	111	2	slot1	317	317	1	1	1	-23	-23	-82	-54	-46	-4021	-35	1	1	-35	-71	-43	-45	-30.9886004083912993678	-69.9323860025727981338	-41.4844374353376821318	-42.2042230061353649262
5.0.14.0	win	042919	14:47:00	008	1	game	3	iti	442	1	111	111	2	0	2000	317	1	1	1	-35	-35	-82	-54	-46	-4021	-35	1	1	-35	-71	-43	-45	-30.9886004083912993678	-69.9323860025727981338	-41.4844374353376821318	-42.2042230061353649262
5.0.14.0	win	042919	14:47:00	008	1	game	3	selection	443	1	112	112	2	slot1	300	300	1	1	1	-35	-35	-82	-54	-46	-4050	-29	1	1	-29	-62	-43	-49	-26.5490590952760676657	-67.768610265723296493	-43.6426116421941401313	-47.5014386126435326219
5.0.14.0	win	042919	14:47:00	008	1	game	3	iti	446	1	112	112	2	0	2000	300	1	1	1	-29	-29	-82	-54	-46	-4050	-29	1	1	-29	-62	-43	-49	-26.5490590952760676657	-67.768610265723296493	-43.6426116421941401313	-47.5014386126435326219
5.0.14.0	win	042919	14:47:00	008	1	game	3	selection	447	1	113	113	2	slot1	308	308	1	1	1	-29	-29	-82	-54	-46	-4080	-30	1	1	-30	-73	-38	-53	-27.2773919516513849715	-70.8532142921242495959	-41.539252393789325879	-49.2927570008826307912
5.0.14.0	win	042919	14:47:00	008	1	game	3	iti	450	1	113	113	2	0	2000	308	1	1	1	-30	-30	-82	-54	-46	-4080	-30	1	1	-30	-73	-38	-53	-27.2773919516513849715	-70.8532142921242495959	-41.539252393789325879	-49.2927570008826307912
5.0.14.0	win	042919	14:47:00	008	1	game	3	selection	451	1	114	114	2	slot1	210	210	1	1	1	-30	-30	-82	-54	-46	-4115	-35	1	1	-35	-71	-37	-50	-27.6112359314154041101	-69.2149959003244958922	-40.1043975990848196034	-50.5629435348655391635
5.0.14.0	win	042919	14:47:00	008	1	game	3	iti	454	1	114	114	2	0	2000	210	1	1	1	-35	-35	-82	-54	-46	-4115	-35	1	1	-35	-71	-37	-50	-27.6112359314154041101	-69.2149959003244958922	-40.1043975990848196034	-50.5629435348655391635
5.0.14.0	win	042919	14:47:00	008	1	game	3	selection	455	1	115	115	2	slot1	239	239	1	1	1	-35	-35	-82	-54	-46	-4137	-22	1	1	-22	-69	-47	-42	-33.4117320841104259443	-66.7881427652661017191	-43.9755311154630135206	-46.4944520291035914283
5.0.14.0	win	042919	14:47:00	008	1	game	3	iti	458	1	115	115	2	0	2000	239	1	1	1	-22	-22	-82	-54	-46	-4137	-22	1	1	-22	-69	-47	-42	-33.4117320841104259443	-66.7881427652661017191	-43.9755311154630135206	-46.4944520291035914283
5.0.14.0	win	042919	14:47:00	008	1	game	3	selection	459	1	116	116	2	slot1	396	396	1	1	1	-22	-22	-82	-54	-46	-4172	-35	1	1	-35	-69	-43	-46	-35.1567420933364829239	-66.8166762067512820522	-45.1251226787309249744	-43.2682743726795209227
5.0.14.0	win	042919	14:47:00	008	1	game	3	iti	462	1	116	116	2	0	2000	396	1	1	1	-35	-35	-82	-54	-46	-4172	-35	1	1	-35	-69	-43	-46	-35.1567420933364829239	-66.8166762067512820522	-45.1251226787309249744	-43.2682743726795209227
5.0.14.0	win	042919	14:47:00	008	1	game	3	selection	463	1	117	117	2	slot1	403	403	1	1	1	-35	-35	-82	-54	-46	-4205	-33	1	1	-33	-62	-49	-41	-32.9272104910505163389	-65.3586857648386825304	-49.0274018405699436585	-42.1737330830756249611
5.0.14.0	win	042919	14:47:00	008	1	game	3	iti	466	1	117	117	2	0	2000	403	1	1	1	-33	-33	-82	-54	-46	-4205	-33	1	1	-33	-62	-49	-41	-32.9272104910505163389	-65.3586857648386825304	-49.0274018405699436585	-42.1737330830756249611
5.0.14.0	win	042919	14:47:00	008	1	game	3	selection	467	1	118	118	2	slot1	312	312	1	1	1	-33	-33	-82	-54	-46	-4242	-37	2	4	-37	-61	-52	-36	-33.8351640794088837083	-63.2035825750598476702	-47.7038744874374103233	-43.4797799488159384396
5.0.14.0	win	042919	14:47:00	008	1	game	3	iti	470	1	118	118	2	0	2000	312	1	1	1	-37	-37	-82	-54	-46	-4242	-37	2	4	-37	-61	-52	-36	-33.8351640794088837083	-63.2035825750598476702	-47.7038744874374103233	-43.4797799488159384396
5.0.14.0	win	042919	14:47:00	008	1	game	3	selection	471	1	119	119	2	slot1	487	487	1	1	1	-37	-37	-82	-54	-46	-4265	-23	1	1	-23	-56	-48	-46	-26.3606946696362243188	-62.6047400015232184955	-47.1861406056134526921	-44.6884710598505421331
5.0.14.0	win	042919	14:47:00	008	1	game	3	iti	474	1	119	119	2	0	2000	487	1	1	1	-23	-23	-82	-54	-46	-4265	-23	1	1	-23	-56	-48	-46	-26.3606946696362243188	-62.6047400015232184955	-47.1861406056134526921	-44.6884710598505421331
5.0.14.0	win	042919	14:47:00	008	1	game	3	selection	475	1	120	120	2	slot1	344	344	1	1	1	-23	-23	-82	-54	-46	-4294	-29	1	1	-29	-63	-47	-46	-31.1469453854235887036	-64.6593194821328864919	-44.4984344456978178073	-44.8697867074929561682
5.0.14.0	win	042919	14:47:00	008	1	game	3	iti	478	1	120	120	2	0	2000	344	1	1	1	-29	-29	-82	-54	-46	-4294	-29	1	1	-29	-63	-47	-46	-31.1469453854235887036	-64.6593194821328864919	-44.4984344456978178073	-44.8697867074929561682
5.0.14.0	win	042919	14:47:00	008	1	game	3	selection	479	1	121	121	2	slot1	291	291	1	1	1	-29	-29	-82	-54	-46	-4329	-35	1	1	-35	-59	-63	-53	-27.9526444092768997507	-61.9241092705202831326	-47.2331962201781863087	-48.1784473798992394222
5.0.14.0	win	042919	14:47:00	008	1	game	3	iti	482	1	121	121	2	0	2000	291	1	1	1	-35	-35	-82	-54	-46	-4329	-35	1	1	-35	-59	-63	-53	-27.9526444092768997507	-61.9241092705202831326	-47.2331962201781863087	-48.1784473798992394222
5.0.14.0	win	042919	14:47:00	008	1	game	3	selection	483	1	122	122	2	slot1	555	555	1	1	1	-35	-35	-82	-54	-46	-4358	-29	1	1	-29	-65	-41	-44	-29.3370760793705471769	-60.1116950207584039845	-40.9862660476448610325	-47.0802324355962369395
5.0.14.0	win	042919	14:47:00	008	1	game	3	iti	486	1	122	122	2	0	2000	555	1	1	1	-29	-29	-82	-54	-46	-4358	-29	1	1	-29	-65	-41	-44	-29.3370760793705471769	-60.1116950207584039845	-40.9862660476448610325	-47.0802324355962369395
5.0.14.0	win	042919	14:47:00	008	1	game	3	selection	487	1	123	123	2	slot1	419	419	1	1	1	-29	-29	-82	-54	-46	-4386	-28	1	1	-28	-58	-40	-47	-29.275718490265422389	-58.8135462610976915698	-43.5695107645851749112	-46.9230091853777224742
5.0.14.0	win	042919	14:47:00	008	1	game	3	iti	490	1	123	123	2	0	2000	419	1	1	1	-28	-28	-82	-54	-46	-4386	-28	1	1	-28	-58	-40	-47	-29.275718490265422389	-58.8135462610976915698	-43.5695107645851749112	-46.9230091853777224742
5.0.14.0	win	042919	14:47:00	008	1	game	3	selection	491	1	124	124	2	slot1	483	483	1	1	1	-28	-28	-82	-54	-46	-4415	-29	1	1	-29	-61	-42	-44	-24.9165540374751550701	-60.1680355341423194204	-45.2221054116346579121	-49.8201041848394226008
5.0.14.0	win	042919	14:47:00	008	1	game	3	iti	494	1	124	124	2	0	2000	483	1	1	1	-29	-29	-82	-54	-46	-4415	-29	1	1	-29	-61	-42	-44	-24.9165540374751550701	-60.1680355341423194204	-45.2221054116346579121	-49.8201041848394226008
5.0.14.0	win	042919	14:47:00	008	1	game	3	selection	495	1	125	125	2	slot1	707	707	1	1	1	-29	-29	-82	-54	-46	-4445	-30	1	1	-30	-64	-43	-51	-25.4374937777015226459	-64.0437324320824927781	-45.3079755949419507033	-51.5590143449266093967
5.0.14.0	win	042919	14:47:00	008	1	game	3	iti	498	1	125	125	2	0	2000	707	1	1	1	-30	-30	-82	-54	-46	-4445	-30	1	1	-30	-64	-43	-51	-25.4374937777015226459	-64.0437324320824927781	-45.3079755949419507033	-51.5590143449266093967
5.0.14.0	win	042919	14:47:00	008	1	game	3	selection	499	1	126	126	2	slot1	318	318	1	1	1	-30	-30	-82	-54	-46	-4470	-25	1	1	-25	-61	-44	-48	-24.729053995616368411	-63.5561826731254129186	-45.2785378872513391002	-53.5373932170380584239
5.0.14.0	win	042919	14:47:00	008	1	game	3	iti	502	1	126	126	2	0	2000	318	1	1	1	-25	-25	-82	-54	-46	-4470	-25	1	1	-25	-61	-44	-48	-24.729053995616368411	-63.5561826731254129186	-45.2785378872513391002	-53.5373932170380584239
5.0.14.0	win	042919	14:47:00	008	1	game	3	selection	503	1	127	127	2	slot1	330	330	1	1	1	-25	-25	-82	-54	-46	-4493	-23	1	1	-23	-61	-42	-49	-30.9016385088409464288	-61.6945955965921228881	-42.2041233911271262969	-53.0001484823696671356
5.0.14.0	win	042919	14:47:00	008	1	game	3	iti	506	1	127	127	2	0	2000	330	1	1	1	-23	-23	-82	-54	-46	-4493	-23	1	1	-23	-61	-42	-49	-30.9016385088409464288	-61.6945955965921228881	-42.2041233911271262969	-53.0001484823696671356
5.0.14.0	win	042919	14:47:00	008	1	game	3	selection	507	1	128	128	2	slot1	362	362	1	1	1	-23	-23	-82	-54	-46	-4525	-32	1	1	-32	-67	-38	-55	-28.3543069566174850138	-65.5426795200229719285	-39.086962336140778973	-55.2036204685280083027
5.0.14.0	win	042919	14:47:00	008	1	game	3	iti	510	1	128	128	2	0	2000	362	1	1	1	-32	-32	-82	-54	-46	-4525	-32	1	1	-32	-67	-38	-55	-28.3543069566174850138	-65.5426795200229719285	-39.086962336140778973	-55.2036204685280083027
5.0.14.0	win	042919	14:47:00	008	1	game	3	selection	511	1	129	129	2	slot1	291	291	1	1	1	-32	-32	-82	-54	-46	-4559	-34	1	1	-34	-69	-38	-61	-30.1949701358949127439	-63.6120828362680086343	-38.5146326986955216398	-54.8000692604043919687
5.0.14.0	win	042919	14:47:00	008	1	game	3	iti	514	1	129	129	2	0	2000	291	1	1	1	-34	-34	-82	-54	-46	-4559	-34	1	1	-34	-69	-38	-61	-30.1949701358949127439	-63.6120828362680086343	-38.5146326986955216398	-54.8000692604043919687
5.0.14.0	win	042919	14:47:00	008	1	game	3	selection	515	1	130	130	2	slot1	474	474	1	1	1	-34	-34	-82	-54	-46	-4582	-23	1	1	-23	-61	-33	-58	-24.7771627816573527525	-64.6719263306370635291	-40.5818261715115724542	-52.7195316025786340219
5.0.14.0	win	042919	14:47:00	008	1	game	3	iti	518	1	130	130	2	0	2000	474	1	1	1	-23	-23	-82	-54	-46	-4582	-23	1	1	-23	-61	-33	-58	-24.7771627816573527525	-64.6719263306370635291	-40.5818261715115724542	-52.7195316025786340219
5.0.14.0	win	042919	14:47:00	008	1	game	3	selection	519	1	131	131	2	slot1	356	356	1	1	1	-23	-23	-82	-54	-46	-4596	-14	1	1	-14	-63	-41	-55	-19.7124493647718850298	-67.1326441064809102954	-40.3223779035090785783	-54.3218988165063763063
5.0.14.0	win	042919	14:47:00	008	1	game	3	iti	522	1	131	131	2	0	2000	356	1	1	1	-14	-14	-82	-54	-46	-4596	-14	1	1	-14	-63	-41	-55	-19.7124493647718850298	-67.1326441064809102954	-40.3223779035090785783	-54.3218988165063763063
5.0.14.0	win	042919	14:47:00	008	1	game	3	selection	523	1	132	132	2	slot1	471	471	1	1	1	-14	-14	-82	-54	-46	-4615	-19	1	1	-19	-68	-33	-53	-18.5647379561189218578	-67.4641056144939028627	-42.2313453585963003434	-52.5597828340439718886
5.0.14.0	win	042919	14:47:00	008	1	game	3	iti	526	1	132	132	2	0	2000	471	1	1	1	-19	-19	-82	-54	-46	-4615	-19	1	1	-19	-68	-33	-53	-18.5647379561189218578	-67.4641056144939028627	-42.2313453585963003434	-52.5597828340439718886
5.0.14.0	win	042919	14:47:00	008	1	game	3	selection	527	1	133	133	2	slot1	262	262	1	1	1	-19	-19	-82	-54	-46	-4636	-21	1	1	-21	-77	-37	-55	-20.6599351861645068595	-67.7596024361598949781	-38.9251166208065129126	-53.3201634007749163402
5.0.14.0	win	042919	14:47:00	008	1	game	3	iti	530	1	133	133	2	0	2000	262	1	1	1	-21	-21	-82	-54	-46	-4636	-21	1	1	-21	-77	-37	-55	-20.6599351861645068595	-67.7596024361598949781	-38.9251166208065129126	-53.3201634007749163402
5.0.14.0	win	042919	14:47:00	008	1	game	3	selection	531	1	134	134	2	slot1	397	397	1	1	1	-21	-21	-82	-54	-46	-4653	-17	1	1	-17	-72	-36	-49	-19.0697162629236984799	-67.8035856673571402098	-36.5232398776617515068	-52.5741415487183658684
5.0.14.0	win	042919	14:47:00	008	1	game	3	iti	534	1	134	134	2	0	2000	397	1	1	1	-17	-17	-82	-54	-46	-4653	-17	1	1	-17	-72	-36	-49	-19.0697162629236984799	-67.8035856673571402098	-36.5232398776617515068	-52.5741415487183658684
5.0.14.0	win	042919	14:47:00	008	1	game	3	selection	535	1	135	135	2	slot1	1111	1111	1	1	1	-17	-17	-82	-54	-46	-4666	-13	1	1	-13	-75	-36	-57	-17.1609760809714693153	-69.8514386055616398608	-37.9371697896547530604	-50.7768579775966060197
5.0.14.0	win	042919	14:47:00	008	1	game	3	iti	538	1	135	135	2	0	2000	1111	1	1	1	-13	-13	-82	-54	-46	-4666	-13	1	1	-13	-75	-36	-57	-17.1609760809714693153	-69.8514386055616398608	-37.9371697896547530604	-50.7768579775966060197
5.0.14.0	win	042919	14:47:00	008	1	game	3	selection	539	1	136	136	2	slot1	349	349	1	1	1	-13	-13	-82	-54	-46	-4684	-18	1	1	-18	-74	-34	-47	-18.8102402500237460004	-71.4802338222151263381	-36.614465900487466854	-44.4745617599478393345
5.0.14.0	win	042919	14:47:00	008	1	game	3	iti	542	1	136	136	2	0	2000	349	1	1	1	-18	-18	-82	-54	-46	-4684	-18	1	1	-18	-74	-34	-47	-18.8102402500237460004	-71.4802338222151263381	-36.614465900487466854	-44.4745617599478393345
5.0.14.0	win	042919	14:47:00	008	1	game	3	selection	543	1	137	137	2	slot1	285	285	1	1	1	-18	-18	-82	-54	-46	-4713	-29	1	1	-29	-69	-33	-39	-22.7434130443324633575	-71.341596607320340695	-36.5860424768798253581	-47.3421920975372572116
5.0.14.0	win	042919	14:47:00	008	1	game	3	iti	546	1	137	137	2	0	2000	285	1	1	1	-29	-29	-82	-54	-46	-4713	-29	1	1	-29	-69	-33	-39	-22.7434130443324633575	-71.341596607320340695	-36.5860424768798253581	-47.3421920975372572116
5.0.14.0	win	042919	14:47:00	008	1	game	3	selection	547	1	138	138	2	slot1	299	299	1	1	1	-29	-29	-82	-54	-46	-4740	-27	1	1	-27	-70	-30	-44	-26.5285766919880749981	-71.7945712591266129721	-32.6013031316821724204	-50.318947029372822044
5.0.14.0	win	042919	14:47:00	008	1	game	3	iti	550	1	138	138	2	0	2000	299	1	1	1	-27	-27	-82	-54	-46	-4740	-27	1	1	-27	-70	-30	-44	-26.5285766919880749981	-71.7945712591266129721	-32.6013031316821724204	-50.318947029372822044
5.0.14.0	win	042919	14:47:00	008	1	game	3	selection	551	1	139	139	2	slot1	274	274	1	1	1	-27	-27	-82	-54	-46	-4774	-34	1	1	-34	-66	-38	-53	-31.9005586771165248194	-71.0588154332544377212	-34.8776020824357075867	-50.7525181375854756993
5.0.14.0	win	042919	14:47:00	008	1	game	3	iti	554	1	139	139	2	0	2000	274	1	1	1	-34	-34	-82	-54	-46	-4774	-34	1	1	-34	-66	-38	-53	-31.9005586771165248194	-71.0588154332544377212	-34.8776020824357075867	-50.7525181375854756993
5.0.14.0	win	042919	14:47:00	008	1	game	3	selection	555	1	140	140	3	0	1500	1500	0	0	1	-34	-34	-82	-54	-46	-4774	0	0	1	-30	-70	-37	-55	-35.8705889968649387356	-70.4722735048722910278	-34.4310870070158117073	-56.0706791668352551028
5.0.14.0	win	042919	14:47:00	008	1	game	3	iti	557	1	140	140	3	0	2000	1500	0	0	1	-34	-34	-82	-54	-46	-4774	0	0	1	-30	-70	-37	-55	-35.8705889968649387356	-70.4722735048722910278	-34.4310870070158117073	-56.0706791668352551028
5.0.14.0	win	042919	14:47:00	008	1	game	3	selection	558	1	141	141	3	slot1	291	291	1	1	1	-34	-34	-82	-54	-46	-4807	-33	1	1	-33	-74	-34	-63	-33.8834809202991991128	-71.2467960923985259569	-39.0739059791073444217	-56.8218023683975772542
5.0.14.0	win	042919	14:47:00	008	1	game	3	iti	561	1	141	141	3	0	2000	291	1	1	1	-33	-33	-82	-54	-46	-4807	-33	1	1	-33	-74	-34	-63	-33.8834809202991991128	-71.2467960923985259569	-39.0739059791073444217	-56.8218023683975772542
5.0.14.0	win	042919	14:47:00	008	1	game	3	selection	562	1	142	142	3	slot1	706	706	1	1	1	-33	-33	-82	-54	-46	-4856	-49	2	3	-49	-75	-45	-58	-37.9116502923540821257	-70.0375716840154467491	-43.6820176139999318821	-57.6509350139054532747
5.0.14.0	win	042919	14:47:00	008	1	game	3	iti	565	1	142	142	3	0	2000	706	1	1	4	-46	-49	-82	-54	-46	-4856	-49	2	3	-49	-75	-45	-58	-37.9116502923540821257	-70.0375716840154467491	-43.6820176139999318821	-57.6509350139054532747
5.0.14.0	win	042919	14:47:00	008	1	game	3	selection	566	1	143	143	3	slot1	336	336	1	2	4	-46	-49	-82	-54	-46	-4894	-38	1	1	-38	-67	-43	-58	-41.2240900292712169062	-70.7685845057727220819	-40.543362138932685923	-57.3674842382058329804
5.0.14.0	win	042919	14:47:00	008	1	game	3	iti	569	1	143	143	3	0	2000	336	1	2	1	-38	-38	-82	-54	-46	-4894	-38	1	1	-38	-67	-43	-58	-41.2240900292712169062	-70.7685845057727220819	-40.543362138932685923	-57.3674842382058329804
5.0.14.0	win	042919	14:47:00	008	1	game	3	selection	570	1	144	144	3	slot1	307	307	1	1	1	-38	-38	-82	-54	-46	-4932	-38	2	3	-38	-69	-36	-61	-42.0064855957258345143	-70.8828183399592575142	-34.7096895193498511389	-57.4875354406134135843
5.0.14.0	win	042919	14:47:00	008	1	game	3	iti	573	1	144	144	3	0	2000	307	1	1	1	-38	-38	-82	-54	-46	-4932	-38	2	3	-38	-69	-36	-61	-42.0064855957258345143	-70.8828183399592575142	-34.7096895193498511389	-57.4875354406134135843
5.0.14.0	win	042919	14:47:00	008	1	game	3	selection	574	1	145	145	3	slot1	457	457	1	1	1	-38	-38	-82	-54	-46	-4982	-50	2	3	-50	-67	-32	-54	-42.8831710286362621787	-71.1962233916051161486	-34.1455847234339415763	-55.664421269619545285
5.0.14.0	win	042919	14:47:00	008	1	game	3	iti	577	1	145	145	3	0	2000	457	1	1	4	-46	-50	-82	-54	-46	-4982	-50	2	3	-50	-67	-32	-54	-42.8831710286362621787	-71.1962233916051161486	-34.1455847234339415763	-55.664421269619545285
5.0.14.0	win	042919	14:47:00	008	1	game	3	selection	578	1	146	146	3	slot1	619	619	1	2	4	-46	-50	-82	-54	-46	-5030	-48	2	3	-48	-62	-30	-54	-44.8546484944276215856	-66.2870775482093534947	-33.0906160597999132733	-54.6593897499909431303
5.0.14.0	win	042919	14:47:00	008	1	game	3	iti	581	1	146	146	3	0	2000	619	1	2	4	-46	-48	-82	-54	-46	-5030	-48	2	3	-48	-62	-30	-54	-44.8546484944276215856	-66.2870775482093534947	-33.0906160597999132733	-54.6593897499909431303
5.0.14.0	win	042919	14:47:00	008	1	game	3	selection	582	1	147	147	3	slot1	426	426	1	2	4	-46	-48	-82	-54	-46	-5074	-44	2	3	-44	-54	-41	-59	-44.7710592318293052472	-61.197412532901182658	-35.8871933938195226688	-61.9977110690552990491
5.0.14.0	win	042919	14:47:00	008	1	game	3	iti	585	1	147	147	3	0	2000	426	1	2	1	-44	-44	-82	-54	-46	-5074	-44	2	3	-44	-54	-41	-59	-44.7710592318293052472	-61.197412532901182658	-35.8871933938195226688	-61.9977110690552990491
5.0.14.0	win	042919	14:47:00	008	1	game	3	selection	586	1	148	148	3	slot1	394	394	1	1	1	-44	-44	-82	-54	-46	-5124	-50	2	3	-50	-57	-32	-62	-47.2155014600930300617	-62.1058416747818426984	-32.193631858282365954	-57.6130899935002815937
5.0.14.0	win	042919	14:47:00	008	1	game	3	iti	589	1	148	148	3	0	2000	394	1	1	4	-46	-50	-82	-54	-46	-5124	-50	2	3	-50	-57	-32	-62	-47.2155014600930300617	-62.1058416747818426984	-32.193631858282365954	-57.6130899935002815937
5.0.14.0	win	042919	14:47:00	008	1	game	3	selection	590	1	149	149	3	slot4	123	123	4	1	4	-46	-50	-82	-54	-46	-5181	-57	2	3	-49	-62	-38	-57	-46.5869346934068460087	-62.4906592667481959325	-35.6982441798229288565	-54.4246910034558908364
5.0.14.0	win	042919	14:47:00	008	1	game	3	iti	593	1	149	149	3	0	2000	123	4	1	1	-50	-50	-82	-54	-57	-5181	-57	2	3	-49	-62	-38	-57	-46.5869346934068460087	-62.4906592667481959325	-35.6982441798229288565	-54.4246910034558908364
5.0.14.0	win	042919	14:47:00	008	1	game	3	selection	594	1	150	150	3	slot3	271	271	3	2	1	-50	-50	-82	-54	-57	-5220	-39	1	3	-41	-64	-39	-53	-44.8652016698696201047	-65.1185919163893061068	-37.4191051918679633559	-55.0923327051505182794
5.0.14.0	win	042919	14:47:00	008	1	game	3	iti	597	1	150	150	3	0	2000	271	3	2	3	-39	-50	-82	-39	-57	-5220	-39	1	3	-41	-64	-39	-53	-44.8652016698696201047	-65.1185919163893061068	-37.4191051918679633559	-55.0923327051505182794
