build	computer.platform	date	time	subject	group	blockcode	blocknum	trialcode	trialnum	values.countRounds	values.TotaltrialCount	values.trialCount_perRound	values.noResponseCount	response	latency	values.selectionRT	values.selectedSlot	values.choice	values.currenthighestSeenPayOffSlot	values.currenthighestSeenPayOff	values.lastSeenPayOff1	values.lastSeenPayOff2	values.lastSeenPayOff3	values.lastSeenPayOff4	values.total	values.currentPayoff	values.highestPayOffSelected	values.currentHighestPayOffSlot	values.payOff1	values.payOff2	values.payOff3	values.payOff4	values.mean1	values.mean2	values.mean3	values.mean4
5.0.14.0	win	042919	15:02:16	008	1	demo	1	selection	2	0	1	1	0	slot2	518	518	2	2	0	0	0	0	0	0	12	12	2	4	36	12	20	41	34.7056549066619055566	12.7299041781810817753	19.5596572733919558118	40.2059187605988839209
5.0.14.0	win	042919	15:02:16	008	1	demo	1	iti	5	0	1	1	0	0	2000	518	2	2	2	12	0	12	0	0	12	12	2	4	36	12	20	41	34.7056549066619055566	12.7299041781810817753	19.5596572733919558118	40.2059187605988839209
5.0.14.0	win	042919	15:02:16	008	1	demo	1	selection	6	0	2	2	0	slot3	259	259	3	2	2	12	0	12	0	0	30	18	2	4	32	14	18	46	38.4879852300650568964	10.3682832461118454859	21.2261297021994437273	45.1691032181444995786
5.0.14.0	win	042919	15:02:16	008	1	demo	1	iti	9	0	2	2	0	0	2000	259	3	2	3	18	0	12	18	0	30	18	2	4	32	14	18	46	38.4879852300650568964	10.3682832461118454859	21.2261297021994437273	45.1691032181444995786
5.0.14.0	win	042919	15:02:16	008	1	demo	1	selection	10	0	3	3	0	slot4	314	314	4	2	3	18	0	12	18	0	71	41	1	4	39	13	25	41	39.2927807631368892771	9.3416807158715293724	20.0848095970248579079	47.8210404231354502258
5.0.14.0	win	042919	15:02:16	008	1	demo	1	iti	13	0	3	3	0	0	2000	314	4	2	4	41	0	12	18	41	71	41	1	4	39	13	25	41	39.2927807631368892771	9.3416807158715293724	20.0848095970248579079	47.8210404231354502258
5.0.14.0	win	042919	15:02:16	008	1	demo	1	selection	14	0	4	4	0	slot1	547	547	1	2	4	41	0	12	18	41	112	41	2	4	41	2	15	52	38.4947473224426559568	9.4970319066350725734	17.6074931779572452228	50.6553401081595353617
5.0.14.0	win	042919	15:02:16	008	1	demo	1	iti	17	0	4	4	0	0	2000	547	1	2	1	41	41	12	18	41	112	41	2	4	41	2	15	52	38.4947473224426559568	9.4970319066350725734	17.6074931779572452228	50.6553401081595353617
5.0.14.0	win	042919	15:02:16	008	1	demo	1	selection	18	0	5	5	0	slot1	279	279	1	1	1	41	41	12	18	41	145	33	2	4	33	9	8	60	32.3759906122514280469	5.527455302506441015	13.3070144584018486	52.6832580157080485606
5.0.14.0	win	042919	15:02:16	008	1	demo	1	iti	21	0	5	5	0	0	2000	279	1	1	4	41	33	12	18	41	145	33	2	4	33	9	8	60	32.3759906122514280469	5.527455302506441015	13.3070144584018486	52.6832580157080485606
5.0.14.0	win	042919	15:02:16	008	1	game	3	selection	1	1	1	1	0	slot2	290	290	2	2	0	0	0	0	0	0	36	36	2	3	56	36	80	11	59.2370467136948022358	41.7861921482285083584	76.0459327654922105921	20.6114716934468269471
5.0.14.0	win	042919	15:02:16	008	1	game	3	iti	4	1	1	1	0	0	2000	290	2	2	2	36	0	36	0	0	36	36	2	3	56	36	80	11	59.2370467136948022358	41.7861921482285083584	76.0459327654922105921	20.6114716934468269471
5.0.14.0	win	042919	15:02:16	008	1	game	3	selection	5	1	2	2	0	slot3	288	288	3	2	2	36	0	36	0	0	108	72	1	3	61	39	72	16	57.3420897544734629037	40.7513820541247966389	74.1216883576460787708	15.4988259430001988903
5.0.14.0	win	042919	15:02:16	008	1	game	3	iti	8	1	2	2	0	0	2000	288	3	2	3	72	0	36	72	0	108	72	1	3	61	39	72	16	57.3420897544734629037	40.7513820541247966389	74.1216883576460787708	15.4988259430001988903
5.0.14.0	win	042919	15:02:16	008	1	game	3	selection	9	1	3	3	0	slot1	359	359	1	2	3	72	0	36	72	0	150	42	2	3	42	38	69	14	50.9718730217909552493	42.6929106027842237836	77.2559700366837063257	12.739130990544545341
5.0.14.0	win	042919	15:02:16	008	1	game	3	iti	12	1	3	3	0	0	2000	359	1	2	3	72	42	36	72	0	150	42	2	3	42	38	69	14	50.9718730217909552493	42.6929106027842237836	77.2559700366837063257	12.739130990544545341
5.0.14.0	win	042919	15:02:16	008	1	game	3	selection	13	1	4	4	0	slot4	363	363	4	2	3	72	42	36	72	0	169	19	2	3	51	38	73	19	52.6243776820757531709	39.2798764192456388855	73.4836906772861908621	15.5577405768879017955
5.0.14.0	win	042919	15:02:16	008	1	game	3	iti	16	1	4	4	0	0	2000	363	4	2	3	72	42	36	72	19	169	19	2	3	51	38	73	19	52.6243776820757531709	39.2798764192456388855	73.4836906772861908621	15.5577405768879017955
5.0.14.0	win	042919	15:02:16	008	1	game	3	selection	17	1	5	5	0	slot3	276	276	3	1	3	72	42	36	72	19	249	80	1	3	56	31	80	21	49.6007174619792934323	36.2742820802447880624	75.3354766509259121676	13.9570474827769395176
5.0.14.0	win	042919	15:02:16	008	1	game	3	iti	20	1	5	5	0	0	2000	276	3	1	3	80	42	36	80	19	249	80	1	3	56	31	80	21	49.6007174619792934323	36.2742820802447880624	75.3354766509259121676	13.9570474827769395176
5.0.14.0	win	042919	15:02:16	008	1	game	3	selection	21	1	6	6	0	slot3	415	415	3	1	3	80	42	36	80	19	330	81	1	3	47	41	81	11	48.9187986773940011176	40.0612075462495837996	77.4652071938585038424	15.9969947525613331862
5.0.14.0	win	042919	15:02:16	008	1	game	3	iti	24	1	6	6	0	0	2000	415	3	1	3	81	42	36	81	19	330	81	1	3	47	41	81	11	48.9187986773940011176	40.0612075462495837996	77.4652071938585038424	15.9969947525613331862
5.0.14.0	win	042919	15:02:16	008	1	game	3	selection	25	1	7	7	0	slot3	318	318	3	1	3	81	42	36	81	19	405	75	1	3	52	48	75	15	48.5329184680922267603	49.5785142341175628644	74.8256497658558146213	15.6519101275095060544
5.0.14.0	win	042919	15:02:16	008	1	game	3	iti	28	1	7	7	0	0	2000	318	3	1	3	75	42	36	75	19	405	75	1	3	52	48	75	15	48.5329184680922267603	49.5785142341175628644	74.8256497658558146213	15.6519101275095060544
5.0.14.0	win	042919	15:02:16	008	1	game	3	selection	29	1	8	8	0	slot3	294	294	3	1	3	75	42	36	75	19	486	81	1	3	44	49	81	19	48.3457103765654210292	52.6338688630342090846	76.3913771725558206072	13.8610152919445113184
5.0.14.0	win	042919	15:02:16	008	1	game	3	iti	32	1	8	8	0	0	2000	294	3	1	3	81	42	36	81	19	486	81	1	3	44	49	81	19	48.3457103765654210292	52.6338688630342090846	76.3913771725558206072	13.8610152919445113184
5.0.14.0	win	042919	15:02:16	008	1	game	3	selection	33	1	9	9	0	slot3	185	185	3	1	3	81	42	36	81	19	551	65	1	3	45	57	65	10	44.8491745167705460062	54.8476462701905660424	76.5620906542332448907	10.3337818028742418619
5.0.14.0	win	042919	15:02:16	008	1	game	3	iti	36	1	9	9	0	0	2000	185	3	1	3	65	42	36	65	19	551	65	1	3	45	57	65	10	44.8491745167705460062	54.8476462701905660424	76.5620906542332448907	10.3337818028742418619
5.0.14.0	win	042919	15:02:16	008	1	game	3	selection	37	1	10	10	0	slot3	360	360	3	1	3	65	42	36	65	19	625	74	1	3	47	54	74	15	48.1249433584153436527	54.7091633760284068444	79.0726920302635534199	13.2395585000208466653
5.0.14.0	win	042919	15:02:16	008	1	game	3	iti	40	1	10	10	0	0	2000	360	3	1	3	74	42	36	74	19	625	74	1	3	47	54	74	15	48.1249433584153436527	54.7091633760284068444	79.0726920302635534199	13.2395585000208466653
5.0.14.0	win	042919	15:02:16	008	1	game	3	selection	41	1	11	11	0	slot3	557	557	3	1	3	74	42	36	74	19	713	88	1	3	44	55	88	8	46.6244572071073974939	53.5738114544431667241	79.6873827193898875976	10.5377910517880160057
5.0.14.0	win	042919	15:02:16	008	1	game	3	iti	44	1	11	11	0	0	2000	557	3	1	3	88	42	36	88	19	713	88	1	3	44	55	88	8	46.6244572071073974939	53.5738114544431667241	79.6873827193898875976	10.5377910517880160057
5.0.14.0	win	042919	15:02:16	008	1	game	3	selection	45	1	12	12	0	slot3	236	236	3	1	3	88	42	36	88	19	795	82	1	3	44	52	82	10	45.2547700076891885601	51.3946296344217543606	79.1255886086284903058	11.829946800665251061
5.0.14.0	win	042919	15:02:16	008	1	game	3	iti	48	1	12	12	0	0	2000	236	3	1	3	82	42	36	82	19	795	82	1	3	44	52	82	10	45.2547700076891885601	51.3946296344217543606	79.1255886086284903058	11.829946800665251061
5.0.14.0	win	042919	15:02:16	008	1	game	3	selection	49	1	13	13	0	slot3	382	382	3	1	3	82	42	36	82	19	877	82	1	3	39	49	82	14	44.5507347798875201761	48.2230585039558263816	80.7278744342967229386	13.2056289680587504165
5.0.14.0	win	042919	15:02:16	008	1	game	3	iti	52	1	13	13	0	0	2000	382	3	1	3	82	42	36	82	19	877	82	1	3	39	49	82	14	44.5507347798875201761	48.2230585039558263816	80.7278744342967229386	13.2056289680587504165
5.0.14.0	win	042919	15:02:16	008	1	game	3	selection	53	1	14	14	0	slot3	264	264	3	1	3	82	42	36	82	19	950	73	1	3	47	50	73	18	46.9892366150741054298	52.5980415281294284569	79.1057545966167765528	15.1842897400790928231
5.0.14.0	win	042919	15:02:16	008	1	game	3	iti	56	1	14	14	0	0	2000	264	3	1	3	73	42	36	73	19	950	73	1	3	47	50	73	18	46.9892366150741054298	52.5980415281294284569	79.1057545966167765528	15.1842897400790928231
5.0.14.0	win	042919	15:02:16	008	1	game	3	selection	57	1	15	15	0	slot3	393	393	3	1	3	73	42	36	73	19	1026	76	1	3	43	52	76	16	42.4890590692517235993	52.7363308359755507126	74.2676513656551122722	15.7381655739545109896
5.0.14.0	win	042919	15:02:16	008	1	game	3	iti	60	1	15	15	0	0	2000	393	3	1	3	76	42	36	76	19	1026	76	1	3	43	52	76	16	42.4890590692517235993	52.7363308359755507126	74.2676513656551122722	15.7381655739545109896
5.0.14.0	win	042919	15:02:16	008	1	game	3	selection	61	1	16	16	0	slot3	340	340	3	1	3	76	42	36	76	19	1096	70	1	3	49	59	70	18	46.0911708848946091166	56.5419488109781269713	73.5715840496060309306	19.0220747810944104117
5.0.14.0	win	042919	15:02:16	008	1	game	3	iti	64	1	16	16	0	0	2000	340	3	1	3	70	42	36	70	19	1096	70	1	3	49	59	70	18	46.0911708848946091166	56.5419488109781269713	73.5715840496060309306	19.0220747810944104117
5.0.14.0	win	042919	15:02:16	008	1	game	3	selection	65	1	17	17	0	slot3	243	243	3	1	3	70	42	36	70	19	1157	61	2	2	39	62	61	19	39.121151925968554508	58.4843898172507223876	70.505643524247204823	20.1125079604953178602
5.0.14.0	win	042919	15:02:16	008	1	game	3	iti	68	1	17	17	0	0	2000	243	3	1	3	61	42	36	61	19	1157	61	2	2	39	62	61	19	39.121151925968554508	58.4843898172507223876	70.505643524247204823	20.1125079604953178602
5.0.14.0	win	042919	15:02:16	008	1	game	3	selection	69	1	18	18	0	slot3	285	285	3	1	3	61	42	36	61	19	1232	75	1	3	36	61	75	16	34.7895846878015859716	57.7452510511140957306	72.9797819292805343139	21.9906493030693646062
5.0.14.0	win	042919	15:02:16	008	1	game	3	iti	72	1	18	18	0	0	2000	285	3	1	3	75	42	36	75	19	1232	75	1	3	36	61	75	16	34.7895846878015859716	57.7452510511140957306	72.9797819292805343139	21.9906493030693646062
5.0.14.0	win	042919	15:02:16	008	1	game	3	selection	73	1	19	19	0	slot3	301	301	3	1	3	75	42	36	75	19	1312	80	1	3	39	62	80	20	36.5388323279219306983	59.9192415604581753996	75.4619049306678135736	24.1264879994612719827
5.0.14.0	win	042919	15:02:16	008	1	game	3	iti	76	1	19	19	0	0	2000	301	3	1	3	80	42	36	80	19	1312	80	1	3	39	62	80	20	36.5388323279219306983	59.9192415604581753996	75.4619049306678135736	24.1264879994612719827
5.0.14.0	win	042919	15:02:16	008	1	game	3	selection	77	1	20	20	0	slot3	381	381	3	1	3	80	42	36	80	19	1382	70	1	3	31	57	70	24	35.7293254700582210148	59.3785401174648299616	75.2046277317512306126	17.9771259150395934512
5.0.14.0	win	042919	15:02:16	008	1	game	3	iti	80	1	20	20	0	0	2000	381	3	1	3	70	42	36	70	19	1382	70	1	3	31	57	70	24	35.7293254700582210148	59.3785401174648299616	75.2046277317512306126	17.9771259150395934512
5.0.14.0	win	042919	15:02:16	008	1	game	3	selection	81	1	21	21	0	slot3	283	283	3	1	3	70	42	36	70	19	1454	72	1	3	40	51	72	20	38.7838651252147954551	54.2070030476910815764	73.6828832974605489881	13.2369764043465742986
5.0.14.0	win	042919	15:02:16	008	1	game	3	iti	84	1	21	21	0	0	2000	283	3	1	3	72	42	36	72	19	1454	72	1	3	40	51	72	20	38.7838651252147954551	54.2070030476910815764	73.6828832974605489881	13.2369764043465742986
5.0.14.0	win	042919	15:02:16	008	1	game	3	selection	85	1	22	22	0	slot3	504	504	3	1	3	72	42	36	72	19	1527	73	1	3	38	52	73	16	43.133604661637001243	53.1141173725807362871	73.1156906176634606709	16.449604702347492946
5.0.14.0	win	042919	15:02:16	008	1	game	3	iti	88	1	22	22	0	0	2000	504	3	1	3	73	42	36	73	19	1527	73	1	3	38	52	73	16	43.133604661637001243	53.1141173725807362871	73.1156906176634606709	16.449604702347492946
5.0.14.0	win	042919	15:02:16	008	1	game	3	selection	89	1	23	23	0	slot3	337	337	3	1	3	73	42	36	73	19	1597	70	1	3	42	43	70	9	40.6866757193470363063	50.6763111829339223391	71.1869689317054508138	11.3071660411587551209
5.0.14.0	win	042919	15:02:16	008	1	game	3	iti	92	1	23	23	0	0	2000	337	3	1	3	70	42	36	70	19	1597	70	1	3	42	43	70	9	40.6866757193470363063	50.6763111829339223391	71.1869689317054508138	11.3071660411587551209
5.0.14.0	win	042919	15:02:16	008	1	game	3	selection	93	1	24	24	0	slot3	484	484	3	1	3	70	42	36	70	19	1664	67	1	3	42	48	67	18	44.8680793129737409686	49.9328300988887789913	70.6838088237417849768	12.5225946881994527615
5.0.14.0	win	042919	15:02:16	008	1	game	3	iti	96	1	24	24	0	0	2000	484	3	1	3	67	42	36	67	19	1664	67	1	3	42	48	67	18	44.8680793129737409686	49.9328300988887789913	70.6838088237417849768	12.5225946881994527615
5.0.14.0	win	042919	15:02:16	008	1	game	3	selection	97	1	25	25	0	slot3	430	430	3	1	3	67	42	36	67	19	1735	71	1	3	43	50	71	14	45.8888746027639271574	48.8693260678096592642	74.5312093417554706321	13.2313721825847068203
5.0.14.0	win	042919	15:02:16	008	1	game	3	iti	100	1	25	25	0	0	2000	430	3	1	3	71	42	36	71	19	1735	71	1	3	43	50	71	14	45.8888746027639271574	48.8693260678096592642	74.5312093417554706321	13.2313721825847068203
5.0.14.0	win	042919	15:02:16	008	1	game	3	selection	101	1	26	26	0	slot3	394	394	3	1	3	71	42	36	71	19	1815	80	1	3	45	58	80	12	43.1832985740587247392	48.7823432028224246437	79.424245681375950312	18.8390202491019209674
5.0.14.0	win	042919	15:02:16	008	1	game	3	iti	104	1	26	26	0	0	2000	394	3	1	3	80	42	36	80	19	1815	80	1	3	45	58	80	12	43.1832985740587247392	48.7823432028224246437	79.424245681375950312	18.8390202491019209674
5.0.14.0	win	042919	15:02:16	008	1	game	3	selection	105	1	27	27	0	slot3	260	260	3	1	3	80	42	36	80	19	1899	84	1	3	46	40	84	19	46.9803226822719537381	45.310702905913096572	84.1794823462152663751	20.9279690192367482382
5.0.14.0	win	042919	15:02:16	008	1	game	3	iti	108	1	27	27	0	0	2000	260	3	1	3	84	42	36	84	19	1899	84	1	3	46	40	84	19	46.9803226822719537381	45.310702905913096572	84.1794823462152663751	20.9279690192367482382
5.0.14.0	win	042919	15:02:16	008	1	game	3	selection	109	1	28	28	0	slot3	384	384	3	1	3	84	42	36	84	19	1977	78	1	3	40	45	78	21	42.8500537391745695004	45.9838101140197395011	84.1678578598116331477	22.0583968884387147114
5.0.14.0	win	042919	15:02:16	008	1	game	3	iti	112	1	28	28	0	0	2000	384	3	1	3	78	42	36	78	19	1977	78	1	3	40	45	78	21	42.8500537391745695004	45.9838101140197395011	84.1678578598116331477	22.0583968884387147114
5.0.14.0	win	042919	15:02:16	008	1	game	3	selection	113	1	29	29	0	slot3	314	314	3	1	3	78	42	36	78	19	2062	85	1	3	44	43	85	25	44.4139335090879043833	44.808068938604485254	87.0957034078920457887	23.2696945466864626439
5.0.14.0	win	042919	15:02:16	008	1	game	3	iti	116	1	29	29	0	0	2000	314	3	1	3	85	42	36	85	19	2062	85	1	3	44	43	85	25	44.4139335090879043833	44.808068938604485254	87.0957034078920457887	23.2696945466864626439
5.0.14.0	win	042919	15:02:16	008	1	game	3	selection	117	1	30	30	0	slot3	258	258	3	1	3	85	42	36	85	19	2141	79	1	3	42	50	79	21	44.7749776089070437024	46.7836178896540175742	82.2259979689220443788	19.0759460783543808304
5.0.14.0	win	042919	15:02:16	008	1	game	3	iti	120	1	30	30	0	0	2000	258	3	1	3	79	42	36	79	19	2141	79	1	3	42	50	79	21	44.7749776089070437024	46.7836178896540175742	82.2259979689220443788	19.0759460783543808304
5.0.14.0	win	042919	15:02:16	008	1	game	3	selection	121	1	31	31	0	slot3	363	363	3	1	3	79	42	36	79	19	2229	88	1	3	47	55	88	17	46.0110529987803218432	47.0376242529874488696	85.1991343164109480313	19.5177251603231844967
5.0.14.0	win	042919	15:02:16	008	1	game	3	iti	124	1	31	31	0	0	2000	363	3	1	3	88	42	36	88	19	2229	88	1	3	47	55	88	17	46.0110529987803218432	47.0376242529874488696	85.1991343164109480313	19.5177251603231844967
5.0.14.0	win	042919	15:02:16	008	1	game	3	selection	125	1	32	32	0	slot3	387	387	3	1	3	88	42	36	88	19	2309	80	1	3	39	44	80	9	45.0735268783480620414	42.9725745645241943294	83.6108949405836341384	14.9806475205783566906
5.0.14.0	win	042919	15:02:16	008	1	game	3	iti	128	1	32	32	0	0	2000	387	3	1	3	80	42	36	80	19	2309	80	1	3	39	44	80	9	45.0735268783480620414	42.9725745645241943294	83.6108949405836341384	14.9806475205783566906
5.0.14.0	win	042919	15:02:16	008	1	game	3	selection	129	1	33	33	0	slot3	295	295	3	1	3	80	42	36	80	19	2387	78	1	3	43	50	78	26	42.0567429045302958457	44.3161577396298582698	81.1530454418472970701	15.906144147456137361
5.0.14.0	win	042919	15:02:16	008	1	game	3	iti	132	1	33	33	0	0	2000	295	3	1	3	78	42	36	78	19	2387	78	1	3	43	50	78	26	42.0567429045302958457	44.3161577396298582698	81.1530454418472970701	15.906144147456137361
5.0.14.0	win	042919	15:02:16	008	1	game	3	selection	133	1	34	34	0	slot3	311	311	3	1	3	78	42	36	78	19	2470	83	1	3	45	44	83	15	43.6298603554588027009	41.9287313278268385375	82.6726589420538999775	16.9766210285982097616
5.0.14.0	win	042919	15:02:16	008	1	game	3	iti	136	1	34	34	0	0	2000	311	3	1	3	83	42	36	83	19	2470	83	1	3	45	44	83	15	43.6298603554588027009	41.9287313278268385375	82.6726589420538999775	16.9766210285982097616
5.0.14.0	win	042919	15:02:16	008	1	game	3	selection	137	1	35	35	0	slot3	305	305	3	1	3	83	42	36	83	19	2552	82	1	3	43	37	82	16	44.1424281083668432757	40.1411072948251046455	80.5730825456118537886	17.5159395739576453366
5.0.14.0	win	042919	15:02:16	008	1	game	3	iti	140	1	35	35	0	0	2000	305	3	1	3	82	42	36	82	19	2552	82	1	3	43	37	82	16	44.1424281083668432757	40.1411072948251046455	80.5730825456118537886	17.5159395739576453366
5.0.14.0	win	042919	15:02:16	008	1	game	3	selection	141	1	36	36	0	slot3	157	157	3	1	3	82	42	36	82	19	2630	78	1	3	43	30	78	11	43.6813514755970615511	36.5386172566801690209	82.8567654290671953277	15.4727598549762124236
5.0.14.0	win	042919	15:02:16	008	1	game	3	iti	144	1	36	36	0	0	2000	157	3	1	3	78	42	36	78	19	2630	78	1	3	43	30	78	11	43.6813514755970615511	36.5386172566801690209	82.8567654290671953277	15.4727598549762124236
5.0.14.0	win	042919	15:02:16	008	1	game	3	selection	145	1	37	37	0	slot3	310	310	3	1	3	78	42	36	78	19	2715	85	1	3	36	40	85	10	40.598901950098245095	32.825890007519362257	83.749810305629296181	15.6304817310466734881
5.0.14.0	win	042919	15:02:16	008	1	game	3	iti	148	1	37	37	0	0	2000	310	3	1	3	85	42	36	85	19	2715	85	1	3	36	40	85	10	40.598901950098245095	32.825890007519362257	83.749810305629296181	15.6304817310466734881
5.0.14.0	win	042919	15:02:16	008	1	game	3	selection	149	1	38	38	0	slot3	250	250	3	1	3	85	42	36	85	19	2805	90	1	3	43	46	90	17	40.7285220606576530145	36.7184129536793832926	88.3896869300746033105	15.7527159267352416805
5.0.14.0	win	042919	15:02:16	008	1	game	3	iti	152	1	38	38	0	0	2000	250	3	1	3	90	42	36	90	19	2805	90	1	3	43	46	90	17	40.7285220606576530145	36.7184129536793832926	88.3896869300746033105	15.7527159267352416805
5.0.14.0	win	042919	15:02:16	008	1	game	3	selection	153	1	39	39	0	slot3	405	405	3	1	3	90	42	36	90	19	2896	91	1	3	48	40	91	20	42.4743804607246744354	34.2128724345270640583	87.7045998325423852293	14.0665710047381580239
5.0.14.0	win	042919	15:02:16	008	1	game	3	iti	156	1	39	39	0	0	2000	405	3	1	3	91	42	36	91	19	2896	91	1	3	48	40	91	20	42.4743804607246744354	34.2128724345270640583	87.7045998325423852293	14.0665710047381580239
5.0.14.0	win	042919	15:02:16	008	1	game	3	selection	157	1	40	40	0	slot3	452	452	3	1	3	91	42	36	91	19	2986	90	1	3	36	32	90	19	38.9950914863188771164	30.3950336463576071822	83.2965452565017585584	13.710931341523338034
5.0.14.0	win	042919	15:02:16	008	1	game	3	iti	160	1	40	40	0	0	2000	452	3	1	3	90	42	36	90	19	2986	90	1	3	36	32	90	19	38.9950914863188771164	30.3950336463576071822	83.2965452565017585584	13.710931341523338034
5.0.14.0	win	042919	15:02:16	008	1	game	3	selection	161	1	41	41	0	slot3	493	493	3	1	3	90	42	36	90	19	3070	84	1	3	38	34	84	2	40.4482160039311011701	30.8811633420316518084	85.4378618833819558631	11.8286698160658012569
5.0.14.0	win	042919	15:02:16	008	1	game	3	iti	164	1	41	41	0	0	2000	493	3	1	3	84	42	36	84	19	3070	84	1	3	38	34	84	2	40.4482160039311011701	30.8811633420316518084	85.4378618833819558631	11.8286698160658012569
5.0.14.0	win	042919	15:02:16	008	1	game	3	selection	165	1	42	42	0	slot3	345	345	3	1	3	84	42	36	84	19	3144	74	1	3	43	31	74	8	40.875687077075347986	32.5557052175490113655	82.7127605288431624331	8.6716269186533025959
5.0.14.0	win	042919	15:02:16	008	1	game	3	iti	168	1	42	42	0	0	2000	345	3	1	3	74	42	36	74	19	3144	74	1	3	43	31	74	8	40.875687077075347986	32.5557052175490113655	82.7127605288431624331	8.6716269186533025959
5.0.14.0	win	042919	15:02:16	008	1	game	3	selection	169	1	43	43	0	slot3	671	671	3	1	3	74	42	36	74	19	3220	76	1	3	37	28	76	3	38.207470630131886935	29.2537296215792466114	80.3607592976643871907	8.5921234891707616299
5.0.14.0	win	042919	15:02:16	008	1	game	3	iti	172	1	43	43	0	0	2000	671	3	1	3	76	42	36	76	19	3220	76	1	3	37	28	76	3	38.207470630131886935	29.2537296215792466114	80.3607592976643871907	8.5921234891707616299
5.0.14.0	win	042919	15:02:16	008	1	game	3	selection	173	1	44	44	0	slot3	619	619	3	1	3	76	42	36	76	19	3298	78	1	3	37	34	78	13	36.9276571017147787757	30.9395887489832119854	77.3173927640678613216	9.138833657673036015
5.0.14.0	win	042919	15:02:16	008	1	game	3	iti	176	1	44	44	0	0	2000	619	3	1	3	78	42	36	78	19	3298	78	1	3	37	34	78	13	36.9276571017147787757	30.9395887489832119854	77.3173927640678613216	9.138833657673036015
5.0.14.0	win	042919	15:02:16	008	1	game	3	selection	177	1	45	45	0	slot3	529	529	3	1	3	78	42	36	78	19	3363	65	1	3	39	30	65	5	36.5874147524184678559	29.5730210724285882407	73.1808249187755848197	6.8004171324863715853
5.0.14.0	win	042919	15:02:16	008	1	game	3	iti	180	1	45	45	0	0	2000	529	3	1	3	65	42	36	65	19	3363	65	1	3	39	30	65	5	36.5874147524184678559	29.5730210724285882407	73.1808249187755848197	6.8004171324863715853
5.0.14.0	win	042919	15:02:16	008	1	game	3	selection	181	1	46	46	0	slot3	132	132	3	1	3	65	42	36	65	19	3448	85	1	3	25	29	85	1	35.2932420853366792812	30.5366344101706381764	76.8016600544487602065	6.2495735239852763243
5.0.14.0	win	042919	15:02:16	008	1	game	3	iti	184	1	46	46	0	0	2000	132	3	1	3	85	42	36	85	19	3448	85	1	3	25	29	85	1	35.2932420853366792812	30.5366344101706381764	76.8016600544487602065	6.2495735239852763243
5.0.14.0	win	042919	15:02:16	008	1	game	3	selection	185	1	47	47	0	slot3	605	605	3	1	3	85	42	36	85	19	3523	75	1	3	36	34	75	11	35.1504147555436361472	31.7488337391713209001	72.6833156223876102331	12.3732878305923676976
5.0.14.0	win	042919	15:02:16	008	1	game	3	iti	188	1	47	47	0	0	2000	605	3	1	3	75	42	36	75	19	3523	75	1	3	36	34	75	11	35.1504147555436361472	31.7488337391713209001	72.6833156223876102331	12.3732878305923676976
5.0.14.0	win	042919	15:02:16	008	1	game	3	selection	189	1	48	48	0	slot3	442	442	3	1	3	75	42	36	75	19	3596	73	1	3	27	24	73	14	29.1813516344649173107	30.1585439278773144167	75.4807313119268172841	10.5050817236385398701
5.0.14.0	win	042919	15:02:16	008	1	game	3	iti	192	1	48	48	0	0	2000	442	3	1	3	73	42	36	73	19	3596	73	1	3	27	24	73	14	29.1813516344649173107	30.1585439278773144167	75.4807313119268172841	10.5050817236385398701
5.0.14.0	win	042919	15:02:16	008	1	game	3	selection	193	1	49	49	0	slot3	317	317	3	1	3	73	42	36	73	19	3663	67	1	3	39	23	67	2	33.9289438914319347873	30.5025131982273371989	74.1424035629046045415	6.8292935103151313214
5.0.14.0	win	042919	15:02:16	008	1	game	3	iti	196	1	49	49	0	0	2000	317	3	1	3	67	42	36	67	19	3663	67	1	3	39	23	67	2	33.9289438914319347873	30.5025131982273371989	74.1424035629046045415	6.8292935103151313214
5.0.14.0	win	042919	15:02:16	008	1	game	3	selection	197	1	50	50	0	slot3	349	349	3	1	3	67	42	36	67	19	3738	75	1	3	30	29	75	5	35.3696145855509840317	30.0769620524777749893	72.3644505985677994886	4.5417318439698401988
5.0.14.0	win	042919	15:02:16	008	1	game	3	iti	200	1	50	50	0	0	2000	349	3	1	3	75	42	36	75	19	3738	75	1	3	30	29	75	5	35.3696145855509840317	30.0769620524777749893	72.3644505985677994886	4.5417318439698401988
5.0.14.0	win	042919	15:02:16	008	1	game	3	selection	201	1	51	51	0	slot3	111	111	3	1	3	75	42	36	75	19	3804	66	1	3	39	25	66	4	37.6204497295589987971	30.1898521000021027305	67.0542109294788843954	7.8879259075981629223
5.0.14.0	win	042919	15:02:16	008	1	game	3	iti	204	1	51	51	0	0	2000	111	3	1	3	66	42	36	66	19	3804	66	1	3	39	25	66	4	37.6204497295589987971	30.1898521000021027305	67.0542109294788843954	7.8879259075981629223
5.0.14.0	win	042919	15:02:16	008	1	game	3	selection	205	1	52	52	0	slot3	512	512	3	1	3	66	42	36	66	19	3878	74	1	3	36	33	74	8	37.7636221790516657393	30.3272467970263832626	67.8382204678991058699	11.8011130705656892559
5.0.14.0	win	042919	15:02:16	008	1	game	3	iti	208	1	52	52	0	0	2000	512	3	1	3	74	42	36	74	19	3878	74	1	3	36	33	74	8	37.7636221790516657393	30.3272467970263832626	67.8382204678991058699	11.8011130705656892559
5.0.14.0	win	042919	15:02:16	008	1	game	3	selection	209	1	53	53	0	slot3	977	977	3	1	3	74	42	36	74	19	3950	72	1	3	36	37	72	5	37.6136674858662871657	33.7164747725454034821	66.3510008047363442074	8.0036083901388117567
5.0.14.0	win	042919	15:02:16	008	1	game	3	iti	212	1	53	53	0	0	2000	977	3	1	3	72	42	36	72	19	3950	72	1	3	36	37	72	5	37.6136674858662871657	33.7164747725454034821	66.3510008047363442074	8.0036083901388117567
5.0.14.0	win	042919	15:02:16	008	1	game	3	selection	213	1	54	54	0	slot3	273	273	3	1	3	72	42	36	72	19	4019	69	1	3	35	30	69	10	33.5678353396206929915	33.6817860395313672939	69.7522596254765119284	8.9045240530716327498
5.0.14.0	win	042919	15:02:16	008	1	game	3	iti	216	1	54	54	0	0	2000	273	3	1	3	69	42	36	69	19	4019	69	1	3	35	30	69	10	33.5678353396206929915	33.6817860395313672939	69.7522596254765119284	8.9045240530716327498
5.0.14.0	win	042919	15:02:16	008	1	game	3	selection	217	1	55	55	0	slot3	256	256	3	1	3	69	42	36	69	19	4093	74	1	3	33	42	74	11	31.6965534110938307322	37.2132303857707000816	71.2561810607922296867	12.0887959385755721087
5.0.14.0	win	042919	15:02:16	008	1	game	3	iti	220	1	55	55	0	0	2000	256	3	1	3	74	42	36	74	19	4093	74	1	3	33	42	74	11	31.6965534110938307322	37.2132303857707000816	71.2561810607922296867	12.0887959385755721087
5.0.14.0	win	042919	15:02:16	008	1	game	3	selection	221	1	56	56	0	slot3	296	296	3	1	3	74	42	36	74	19	4170	77	1	3	30	38	77	7	30.8349572488080987398	40.6480997829066339477	72.7599221284239234819	12.3182505241564381748
5.0.14.0	win	042919	15:02:16	008	1	game	3	iti	224	1	56	56	0	0	2000	296	3	1	3	77	42	36	77	19	4170	77	1	3	30	38	77	7	30.8349572488080987398	40.6480997829066339477	72.7599221284239234819	12.3182505241564381748
5.0.14.0	win	042919	15:02:16	008	1	game	3	selection	225	1	57	57	0	slot3	372	372	3	1	3	77	42	36	77	19	4240	70	1	3	30	44	70	15	31.5455655966897765552	44.1571897672364030996	74.5063408021754156607	11.3168447225587769367
5.0.14.0	win	042919	15:02:16	008	1	game	3	iti	228	1	57	57	0	0	2000	372	3	1	3	70	42	36	70	19	4240	70	1	3	30	44	70	15	31.5455655966897765552	44.1571897672364030996	74.5063408021754156607	11.3168447225587769367
5.0.14.0	win	042919	15:02:16	008	1	game	3	selection	229	1	58	58	0	slot3	273	273	3	1	3	70	42	36	70	19	4309	69	1	3	34	41	69	8	31.8183312755900722379	44.2485476359486469278	72.0101006932316209941	12.6454436394441387392
5.0.14.0	win	042919	15:02:16	008	1	game	3	iti	232	1	58	58	0	0	2000	273	3	1	3	69	42	36	69	19	4309	69	1	3	34	41	69	8	31.8183312755900722379	44.2485476359486469278	72.0101006932316209941	12.6454436394441387392
5.0.14.0	win	042919	15:02:16	008	1	game	3	selection	233	1	59	59	0	slot3	299	299	3	1	3	69	42	36	69	19	4374	65	1	3	29	49	65	20	30.2126876650328881624	44.4998609343080175904	70.6916267394819044512	16.1460250692675693074
5.0.14.0	win	042919	15:02:16	008	1	game	3	iti	236	1	59	59	0	0	2000	299	3	1	3	65	42	36	65	19	4374	65	1	3	29	49	65	20	30.2126876650328881624	44.4998609343080175904	70.6916267394819044512	16.1460250692675693074
5.0.14.0	win	042919	15:02:16	008	1	game	3	selection	237	1	60	60	0	slot3	1105	1105	3	1	3	65	42	36	65	19	4442	68	1	3	35	40	68	12	33.34196926325489585	44.2145878061456230057	70.6475045075600576183	13.8120790689796510975
5.0.14.0	win	042919	15:02:16	008	1	game	3	iti	240	1	60	60	0	0	2000	1105	3	1	3	68	42	36	68	19	4442	68	1	3	35	40	68	12	33.34196926325489585	44.2145878061456230057	70.6475045075600576183	13.8120790689796510975
5.0.14.0	win	042919	15:02:16	008	1	game	3	selection	241	1	61	61	0	slot3	259	259	3	1	3	68	42	36	68	19	4522	80	1	3	35	46	80	19	36.1387775969475129045	45.097926550650505817	73.243562193423187523	20.8869132114039359749
5.0.14.0	win	042919	15:02:16	008	1	game	3	iti	244	1	61	61	0	0	2000	259	3	1	3	80	42	36	80	19	4522	80	1	3	35	46	80	19	36.1387775969475129045	45.097926550650505817	73.243562193423187523	20.8869132114039359749
5.0.14.0	win	042919	15:02:16	008	1	game	3	selection	245	1	62	62	0	slot3	354	354	3	1	3	80	42	36	80	19	4594	72	1	3	45	48	72	29	40.8064239082535351599	45.4517963759418677228	74.8108220433839079533	26.213510676476602157
5.0.14.0	win	042919	15:02:16	008	1	game	3	iti	248	1	62	62	0	0	2000	354	3	1	3	72	42	36	72	19	4594	72	1	3	45	48	72	29	40.8064239082535351599	45.4517963759418677228	74.8108220433839079533	26.213510676476602157
5.0.14.0	win	042919	15:02:16	008	1	game	3	selection	249	1	63	63	0	slot3	282	282	3	1	3	72	42	36	72	19	4669	75	1	3	40	41	75	29	43.916447958430993026	45.8131555923366846628	75.496074439121983346	25.5964449429370439759
5.0.14.0	win	042919	15:02:16	008	1	game	3	iti	252	1	63	63	0	0	2000	282	3	1	3	75	42	36	75	19	4669	75	1	3	40	41	75	29	43.916447958430993026	45.8131555923366846628	75.496074439121983346	25.5964449429370439759
5.0.14.0	win	042919	15:02:16	008	1	game	3	selection	253	1	64	64	0	slot3	466	466	3	1	3	75	42	36	75	19	4743	74	1	3	43	35	74	28	45.6692321970545194176	39.7829565021911619738	74.6017726924972350844	24.8987899773675493975
5.0.14.0	win	042919	15:02:16	008	1	game	3	iti	256	1	64	64	0	0	2000	466	3	1	3	74	42	36	74	19	4743	74	1	3	43	35	74	28	45.6692321970545194176	39.7829565021911619738	74.6017726924972350844	24.8987899773675493975
5.0.14.0	win	042919	15:02:16	008	1	game	3	selection	257	1	65	65	0	slot3	295	295	3	1	3	74	42	36	74	19	4816	73	1	3	54	48	73	24	49.1908424044553456156	39.3888856875966411053	71.8577392372549752508	24.1251557704440564578
5.0.14.0	win	042919	15:02:16	008	1	game	3	iti	260	1	65	65	0	0	2000	295	3	1	3	73	42	36	73	19	4816	73	1	3	54	48	73	24	49.1908424044553456156	39.3888856875966411053	71.8577392372549752508	24.1251557704440564578
5.0.14.0	win	042919	15:02:16	008	1	game	3	selection	261	1	66	66	0	slot3	271	271	3	1	3	73	42	36	73	19	4883	67	1	3	45	42	67	25	47.6932871128330475585	39.6621399194310768621	68.3721961345950717259	24.618818310619229095
5.0.14.0	win	042919	15:02:16	008	1	game	3	iti	264	1	66	66	0	0	2000	271	3	1	3	67	42	36	67	19	4883	67	1	3	45	42	67	25	47.6932871128330475585	39.6621399194310768621	68.3721961345950717259	24.618818310619229095
5.0.14.0	win	042919	15:02:16	008	1	game	3	selection	265	1	67	67	0	slot3	101	101	3	1	3	67	42	36	67	19	4948	65	1	3	44	40	65	24	50.6221936959086846741	38.1139093010439609088	66.0105732126720994302	25.094329160669236245
5.0.14.0	win	042919	15:02:16	008	1	game	3	iti	268	1	67	67	0	0	2000	101	3	1	3	65	42	36	65	19	4948	65	1	3	44	40	65	24	50.6221936959086846741	38.1139093010439609088	66.0105732126720994302	25.094329160669236245
5.0.14.0	win	042919	15:02:16	008	1	game	3	selection	269	1	68	68	0	slot1	294	294	1	2	3	65	42	36	65	19	4995	47	2	3	47	42	65	31	51.4925528244111418985	40.7911798444285054188	68.1783310266297917224	28.3287188942733685337
5.0.14.0	win	042919	15:02:16	008	1	game	3	iti	272	1	68	68	0	0	2000	294	1	2	3	65	47	36	65	19	4995	47	2	3	47	42	65	31	51.4925528244111418985	40.7911798444285054188	68.1783310266297917224	28.3287188942733685337
5.0.14.0	win	042919	15:02:16	008	1	game	3	selection	273	1	69	69	0	slot2	413	413	2	2	3	65	47	36	65	19	5041	46	2	3	59	46	69	23	54.4635060644678645758	40.7580779296934423428	66.2884075739996205812	26.5333610913193602698
5.0.14.0	win	042919	15:02:16	008	1	game	3	iti	276	1	69	69	0	0	2000	413	2	2	3	65	47	46	65	19	5041	46	2	3	59	46	69	23	54.4635060644678645758	40.7580779296934423428	66.2884075739996205812	26.5333610913193602698
5.0.14.0	win	042919	15:02:16	008	1	game	3	selection	277	1	70	70	0	slot4	345	345	4	2	3	65	47	46	65	19	5071	30	2	3	62	39	70	30	54.1758098902663718377	40.9289678464587538542	63.6826054337952456308	24.7883067583875202899
5.0.14.0	win	042919	15:02:16	008	1	game	3	iti	280	1	70	70	0	0	2000	345	4	2	3	65	47	46	65	30	5071	30	2	3	62	39	70	30	54.1758098902663718377	40.9289678464587538542	63.6826054337952456308	24.7883067583875202899
5.0.14.0	win	042919	15:02:16	008	1	game	3	selection	281	1	71	71	0	slot3	532	532	3	1	3	65	47	46	65	30	5136	65	1	3	59	45	65	36	60.0614624919516444379	42.0889547976077054159	64.5540928805506837307	33.3472907109963543348
5.0.14.0	win	042919	15:02:16	008	1	game	3	iti	284	1	71	71	0	0	2000	532	3	1	3	65	47	46	65	30	5136	65	1	3	59	45	65	36	60.0614624919516444379	42.0889547976077054159	64.5540928805506837307	33.3472907109963543348
5.0.14.0	win	042919	15:02:16	008	1	game	3	selection	285	1	72	72	0	slot3	317	317	3	1	3	65	47	46	65	30	5202	66	1	3	60	39	66	29	58.6178740351318054991	43.6272240460597728884	64.575839555234736622	28.9529276661680228244
5.0.14.0	win	042919	15:02:16	008	1	game	3	iti	288	1	72	72	0	0	2000	317	3	1	3	66	47	46	66	30	5202	66	1	3	60	39	66	29	58.6178740351318054991	43.6272240460597728884	64.575839555234736622	28.9529276661680228244
5.0.14.0	win	042919	15:02:16	008	1	game	3	selection	289	1	73	73	0	slot3	462	462	3	1	3	66	47	46	66	30	5265	63	1	3	60	40	63	25	58.6175808797650503834	43.3499175629066044735	61.9773861945025288378	27.2904621020871971382
5.0.14.0	win	042919	15:02:16	008	1	game	3	iti	292	1	73	73	0	0	2000	462	3	1	3	63	47	46	63	30	5265	63	1	3	60	40	63	25	58.6175808797650503834	43.3499175629066044735	61.9773861945025288378	27.2904621020871971382
5.0.14.0	win	042919	15:02:16	008	1	game	3	selection	293	1	74	74	0	slot3	333	333	3	1	3	63	47	46	63	30	5327	62	1	3	57	39	62	24	58.4597690745468128171	40.3103181910560834922	59.9749701689029421914	26.2626089297694385039
5.0.14.0	win	042919	15:02:16	008	1	game	3	iti	296	1	74	74	0	0	2000	333	3	1	3	62	47	46	62	30	5327	62	1	3	57	39	62	24	58.4597690745468128171	40.3103181910560834922	59.9749701689029421914	26.2626089297694385039
5.0.14.0	win	042919	15:02:16	008	1	game	3	selection	297	1	75	75	0	slot3	219	219	3	1	3	62	47	46	62	30	5399	72	1	3	57	43	72	24	53.6631781215356724601	41.1246921353207781635	65.7231496564451305176	26.9791897407417344823
5.0.14.0	win	042919	15:02:16	008	1	game	3	iti	300	1	75	75	0	0	2000	219	3	1	3	72	47	46	72	30	5399	72	1	3	57	43	72	24	53.6631781215356724601	41.1246921353207781635	65.7231496564451305176	26.9791897407417344823
5.0.14.0	win	042919	15:02:16	008	1	game	3	selection	301	1	76	76	0	slot3	761	761	3	1	3	72	47	46	72	30	5469	70	1	3	57	39	70	26	58.4474445582597610382	42.9912756825849484699	66.2121075156624954161	26.9511696697750764429
5.0.14.0	win	042919	15:02:16	008	1	game	3	iti	304	1	76	76	0	0	2000	761	3	1	3	70	47	46	70	30	5469	70	1	3	57	39	70	26	58.4474445582597610382	42.9912756825849484699	66.2121075156624954161	26.9511696697750764429
5.0.14.0	win	042919	15:02:16	008	1	game	3	selection	305	1	77	77	0	slot3	324	324	3	1	3	70	47	46	70	30	5535	66	1	3	52	46	66	24	55.0067582129063623597	43.2486423614228527867	66.923488217410962875	26.3500165583072281095
5.0.14.0	win	042919	15:02:16	008	1	game	3	iti	308	1	77	77	0	0	2000	324	3	1	3	66	47	46	66	30	5535	66	1	3	52	46	66	24	55.0067582129063623597	43.2486423614228527867	66.923488217410962875	26.3500165583072281095
5.0.14.0	win	042919	15:02:16	008	1	game	3	selection	309	1	78	78	0	slot3	273	273	3	1	3	66	47	46	66	30	5603	68	1	3	67	48	68	31	58.8334461614718406963	45.308803456972668755	66.5252738466035964393	26.1987121263490152501
5.0.14.0	win	042919	15:02:16	008	1	game	3	iti	312	1	78	78	0	0	2000	273	3	1	3	68	47	46	68	30	5603	68	1	3	67	48	68	31	58.8334461614718406963	45.308803456972668755	66.5252738466035964393	26.1987121263490152501
5.0.14.0	win	042919	15:02:16	008	1	game	3	selection	313	1	79	79	0	slot3	296	296	3	1	3	68	47	46	68	30	5669	66	1	3	61	44	66	29	57.146661056032243664	46.2087920744473379386	62.8632815926593266909	34.7590604066328410227
5.0.14.0	win	042919	15:02:16	008	1	game	3	iti	316	1	79	79	0	0	2000	296	3	1	3	66	47	46	66	30	5669	66	1	3	61	44	66	29	57.146661056032243664	46.2087920744473379386	62.8632815926593266909	34.7590604066328410227
5.0.14.0	win	042919	15:02:16	008	1	game	3	selection	317	1	80	80	0	slot3	49	49	3	1	3	66	47	46	66	30	5737	68	1	3	54	40	68	42	57.9985106894149140544	43.4801862788057817966	65.5106428218759617721	39.0453529546330457833
5.0.14.0	win	042919	15:02:16	008	1	game	3	iti	320	1	80	80	0	0	2000	49	3	1	3	68	47	46	68	30	5737	68	1	3	54	40	68	42	57.9985106894149140544	43.4801862788057817966	65.5106428218759617721	39.0453529546330457833
5.0.14.0	win	042919	15:02:16	008	1	game	3	selection	321	1	81	81	0	slot3	510	510	3	1	3	68	47	46	68	30	5801	64	1	3	60	39	64	35	59.3425919073409957605	42.7554893159407285452	59.4996220205094843436	38.1607639442218555814
5.0.14.0	win	042919	15:02:16	008	1	game	3	iti	324	1	81	81	0	0	2000	510	3	1	3	64	47	46	64	30	5801	64	1	3	60	39	64	35	59.3425919073409957605	42.7554893159407285452	59.4996220205094843436	38.1607639442218555814
5.0.14.0	win	042919	15:02:16	008	1	game	3	selection	325	1	82	82	0	slot3	331	331	3	1	3	64	47	46	64	30	5845	44	2	1	61	39	44	48	60.9594566417415961723	39.6117956747997510547	55.9102743641536932273	40.503008218074633362
5.0.14.0	win	042919	15:02:16	008	1	game	3	iti	328	1	82	82	0	0	2000	331	3	1	1	47	47	46	44	30	5845	44	2	1	61	39	44	48	60.9594566417415961723	39.6117956747997510547	55.9102743641536932273	40.503008218074633362
5.0.14.0	win	042919	15:02:16	008	1	game	3	selection	329	1	83	83	0	slot3	736	736	3	2	1	47	47	46	44	30	5888	43	2	1	57	32	43	44	55.9186326358055367791	40.2783333997791714864	52.5849062434658094389	40.5253522298440813643
5.0.14.0	win	042919	15:02:16	008	1	game	3	iti	332	1	83	83	0	0	2000	736	3	2	1	47	47	46	43	30	5888	43	2	1	57	32	43	44	55.9186326358055367791	40.2783333997791714864	52.5849062434658094389	40.5253522298440813643
5.0.14.0	win	042919	15:02:16	008	1	game	3	selection	333	1	84	84	0	slot3	388	388	3	2	1	47	47	46	43	30	5929	41	2	1	49	46	41	34	55.4107128512594471204	44.7641700892665355127	47.7274618217084736216	38.0167893311973017489
5.0.14.0	win	042919	15:02:16	008	1	game	3	iti	336	1	84	84	0	0	2000	388	3	2	1	47	47	46	41	30	5929	41	2	1	49	46	41	34	55.4107128512594471204	44.7641700892665355127	47.7274618217084736216	38.0167893311973017489
5.0.14.0	win	042919	15:02:16	008	1	game	3	selection	337	1	85	85	0	slot3	398	398	3	2	1	47	47	46	41	30	5978	49	2	1	53	45	49	36	54.4558413067328004331	46.999926750305853318	47.7749919369150930493	34.6140476407052233299
5.0.14.0	win	042919	15:02:16	008	1	game	3	iti	340	1	85	85	0	0	2000	398	3	2	3	49	47	46	49	30	5978	49	2	1	53	45	49	36	54.4558413067328004331	46.999926750305853318	47.7749919369150930493	34.6140476407052233299
5.0.14.0	win	042919	15:02:16	008	1	game	3	selection	341	1	86	86	0	slot3	413	413	3	1	3	49	47	46	49	30	6025	47	2	1	55	42	47	19	53.8440992873995512014	45.4400211148102997072	44.1698162069300650501	29.300616687904838642
5.0.14.0	win	042919	15:02:16	008	1	game	3	iti	344	1	86	86	0	0	2000	413	3	1	1	47	47	46	47	30	6025	47	2	1	55	42	47	19	53.8440992873995512014	45.4400211148102997072	44.1698162069300650501	29.300616687904838642
5.0.14.0	win	042919	15:02:16	008	1	game	3	selection	345	1	87	87	0	slot3	409	409	3	2	1	47	47	46	47	30	6072	47	2	1	63	44	47	36	53.4291745232194941195	46.2512705103032430998	44.4925096077362525193	35.0287583275438691999
5.0.14.0	win	042919	15:02:16	008	1	game	3	iti	348	1	87	87	0	0	2000	409	3	2	1	47	47	46	47	30	6072	47	2	1	63	44	47	36	53.4291745232194941195	46.2512705103032430998	44.4925096077362525193	35.0287583275438691999
5.0.14.0	win	042919	15:02:16	008	1	game	3	selection	349	1	88	88	0	slot1	252	252	1	1	1	47	47	46	47	30	6136	64	1	1	64	47	44	37	59.6559430850109464473	44.840094709280215568	43.2117963063139924884	32.5071646344426099517
5.0.14.0	win	042919	15:02:16	008	1	game	3	iti	352	1	88	88	0	0	2000	252	1	1	1	64	64	46	47	30	6136	64	1	1	64	47	44	37	59.6559430850109464473	44.840094709280215568	43.2117963063139924884	32.5071646344426099517
5.0.14.0	win	042919	15:02:16	008	1	game	3	selection	353	1	89	89	0	slot2	275	275	2	2	1	64	64	46	47	30	6173	37	2	1	56	37	38	29	58.1046227404088497792	44.781653564716869198	44.8950531536061063775	30.389608192900354311
5.0.14.0	win	042919	15:02:16	008	1	game	3	iti	356	1	89	89	0	0	2000	275	2	2	1	64	64	37	47	30	6173	37	2	1	56	37	38	29	58.1046227404088497792	44.781653564716869198	44.8950531536061063775	30.389608192900354311
5.0.14.0	win	042919	15:02:16	008	1	game	3	selection	357	1	90	90	0	slot4	327	327	4	2	1	64	64	37	47	30	6207	34	2	1	58	33	50	34	54.3235796713489165199	42.8695532806145038762	47.0481192145722388886	29.1882001780236564059
5.0.14.0	win	042919	15:02:16	008	1	game	3	iti	360	1	90	90	0	0	2000	327	4	2	1	64	64	37	47	34	6207	34	2	1	58	33	50	34	54.3235796713489165199	42.8695532806145038762	47.0481192145722388886	29.1882001780236564059
5.0.14.0	win	042919	15:02:16	008	1	game	3	selection	361	1	91	91	0	slot1	240	240	1	1	1	64	64	37	47	34	6265	58	1	1	58	49	52	33	59.8768317390822417678	42.6246294902111415581	50.4472718243562496809	31.9719603223796404734
5.0.14.0	win	042919	15:02:16	008	1	game	3	iti	364	1	91	91	0	0	2000	240	1	1	1	58	58	37	47	34	6265	58	1	1	58	49	52	33	59.8768317390822417678	42.6246294902111415581	50.4472718243562496809	31.9719603223796404734
5.0.14.0	win	042919	15:02:16	008	1	game	3	selection	365	1	92	92	0	slot1	283	283	1	1	1	58	58	37	47	34	6332	67	1	1	67	37	53	36	61.1057830465329629988	41.3033841108304855538	52.3346757724009421509	35.8660519125301178178
5.0.14.0	win	042919	15:02:16	008	1	game	3	iti	368	1	92	92	0	0	2000	283	1	1	1	67	67	37	47	34	6332	67	1	1	67	37	53	36	61.1057830465329629988	41.3033841108304855538	52.3346757724009421509	35.8660519125301178178
5.0.14.0	win	042919	15:02:16	008	1	game	3	selection	369	1	93	93	0	slot1	401	401	1	1	1	67	67	37	47	34	6404	72	1	1	72	39	51	28	64.5435140412308783198	38.5019113179673126979	52.3250621677849423463	31.0571347514333027107
5.0.14.0	win	042919	15:02:16	008	1	game	3	iti	372	1	93	93	0	0	2000	401	1	1	1	72	72	37	47	34	6404	72	1	1	72	39	51	28	64.5435140412308783198	38.5019113179673126979	52.3250621677849423463	31.0571347514333027107
5.0.14.0	win	042919	15:02:16	008	1	game	3	selection	373	1	94	94	0	slot1	336	336	1	1	1	72	72	37	47	34	6463	59	1	1	59	39	47	30	63.6487505394158290528	37.0403389214606804103	51.2162531970455106034	30.1356073860877664572
5.0.14.0	win	042919	15:02:16	008	1	game	3	iti	376	1	94	94	0	0	2000	336	1	1	1	59	59	37	47	34	6463	59	1	1	59	39	47	30	63.6487505394158290528	37.0403389214606804103	51.2162531970455106034	30.1356073860877664572
5.0.14.0	win	042919	15:02:16	008	1	game	3	selection	377	1	95	95	0	slot1	341	341	1	1	1	59	59	37	47	34	6526	63	1	1	63	46	50	22	67.9666110291355920481	37.3557043703396516321	53.9473605141808647545	29.3293970440878162265
5.0.14.0	win	042919	15:02:16	008	1	game	3	iti	380	1	95	95	0	0	2000	341	1	1	1	63	63	37	47	34	6526	63	1	1	63	46	50	22	67.9666110291355920481	37.3557043703396516321	53.9473605141808647545	29.3293970440878162265
5.0.14.0	win	042919	15:02:16	008	1	game	3	selection	381	1	96	96	0	slot1	59	59	1	1	1	63	63	37	47	34	6592	66	1	1	66	30	52	29	63.4604723460833710647	31.5250802802648131262	51.951319173874431101	34.0055594066369479833
5.0.14.0	win	042919	15:02:16	008	1	game	3	iti	384	1	96	96	0	0	2000	59	1	1	1	66	66	37	47	34	6592	66	1	1	66	30	52	29	63.4604723460833710647	31.5250802802648131262	51.951319173874431101	34.0055594066369479833
5.0.14.0	win	042919	15:02:16	008	1	game	3	selection	385	1	97	97	0	slot1	485	485	1	1	1	66	66	37	47	34	6656	64	1	1	64	35	50	31	58.9946625636661963199	31.0929637514928138842	54.916020742681425304	35.1788646390307704337
5.0.14.0	win	042919	15:02:16	008	1	game	3	iti	388	1	97	97	0	0	2000	485	1	1	1	64	64	37	47	34	6656	64	1	1	64	35	50	31	58.9946625636661963199	31.0929637514928138842	54.916020742681425304	35.1788646390307704337
5.0.14.0	win	042919	15:02:16	008	1	game	3	selection	389	1	98	98	0	slot1	344	344	1	1	1	64	64	37	47	34	6720	64	1	1	64	31	59	36	57.5278455186854600356	31.6527465284446485327	55.0718077153305998195	33.2545199231100099269
5.0.14.0	win	042919	15:02:16	008	1	game	3	iti	392	1	98	98	0	0	2000	344	1	1	1	64	64	37	47	34	6720	64	1	1	64	31	59	36	57.5278455186854600356	31.6527465284446485327	55.0718077153305998195	33.2545199231100099269
5.0.14.0	win	042919	15:02:16	008	1	game	3	selection	393	1	99	99	0	slot1	437	437	1	1	1	64	64	37	47	34	6779	59	1	1	59	25	45	27	59.4816776193978640208	31.9830951119252517856	51.8017387663509367712	30.2393460689381683437
5.0.14.0	win	042919	15:02:16	008	1	game	3	iti	396	1	99	99	0	0	2000	437	1	1	1	59	59	37	47	34	6779	59	1	1	59	25	45	27	59.4816776193978640208	31.9830951119252517856	51.8017387663509367712	30.2393460689381683437
5.0.14.0	win	042919	15:02:16	008	1	game	3	selection	397	1	100	100	0	slot1	359	359	1	1	1	59	59	37	47	34	6839	60	1	1	60	41	52	26	53.651017632073155994	31.0912143541205310271	48.2209273074654873881	31.0006071834294019141
5.0.14.0	win	042919	15:02:16	008	1	game	3	iti	400	1	100	100	0	0	2000	359	1	1	1	60	60	37	47	34	6839	60	1	1	60	41	52	26	53.651017632073155994	31.0912143541205310271	48.2209273074654873881	31.0006071834294019141
5.0.14.0	win	042919	15:02:16	008	1	game	3	selection	401	1	101	101	0	slot1	424	424	1	1	1	60	60	37	47	34	6892	53	1	1	53	31	43	28	55.4030222728928762876	30.0673682260917480846	48.0726904919854405307	29.0230334299759817895
5.0.14.0	win	042919	15:02:16	008	1	game	3	iti	404	1	101	101	0	0	2000	424	1	1	1	53	53	37	47	34	6892	53	1	1	53	31	43	28	55.4030222728928762876	30.0673682260917480846	48.0726904919854405307	29.0230334299759817895
5.0.14.0	win	042919	15:02:16	008	1	game	3	selection	405	1	102	102	0	slot1	396	396	1	1	1	53	53	37	47	34	6946	54	1	1	54	21	50	33	53.4570890758945864718	27.335867572719561025	45.8832296477128096512	28.2216026613753108165
5.0.14.0	win	042919	15:02:16	008	1	game	3	iti	408	1	102	102	0	0	2000	396	1	1	1	54	54	37	47	34	6946	54	1	1	54	21	50	33	53.4570890758945864718	27.335867572719561025	45.8832296477128096512	28.2216026613753108165
5.0.14.0	win	042919	15:02:16	008	1	game	3	selection	409	1	103	103	0	slot1	414	414	1	1	1	54	54	37	47	34	7007	61	1	1	61	33	46	29	59.1979840092496019111	29.7952523550669496899	42.4053939124586776188	24.9487631481006033596
5.0.14.0	win	042919	15:02:16	008	1	game	3	iti	412	1	103	103	0	0	2000	414	1	1	1	61	61	37	47	34	7007	61	1	1	61	33	46	29	59.1979840092496019111	29.7952523550669496899	42.4053939124586776188	24.9487631481006033596
5.0.14.0	win	042919	15:02:16	008	1	game	3	selection	413	1	104	104	0	slot1	388	388	1	1	1	61	61	37	47	34	7065	58	1	1	58	33	36	22	57.9366534978353797669	32.9064107841375488306	37.7452916916600713648	25.2292555918889256361
5.0.14.0	win	042919	15:02:16	008	1	game	3	iti	416	1	104	104	0	0	2000	388	1	1	1	58	58	37	47	34	7065	58	1	1	58	33	36	22	57.9366534978353797669	32.9064107841375488306	37.7452916916600713648	25.2292555918889256361
5.0.14.0	win	042919	15:02:16	008	1	game	3	selection	417	1	105	105	0	slot1	511	511	1	1	1	58	58	37	47	34	7126	61	1	1	61	23	35	12	57.2884918437836887506	31.248007395309631562	33.7724979393934603422	17.9562556527391024019
5.0.14.0	win	042919	15:02:16	008	1	game	3	iti	420	1	105	105	0	0	2000	511	1	1	1	61	61	37	47	34	7126	61	1	1	61	23	35	12	57.2884918437836887506	31.248007395309631562	33.7724979393934603422	17.9562556527391024019
5.0.14.0	win	042919	15:02:16	008	1	game	3	selection	421	1	106	106	0	slot1	255	255	1	1	1	61	61	37	47	34	7183	57	1	1	57	30	36	14	54.9286684433001326511	28.7523800486961320644	34.0314872311411562578	14.6483870802432765146
5.0.14.0	win	042919	15:02:16	008	1	game	3	iti	424	1	106	106	0	0	2000	255	1	1	1	57	57	37	47	34	7183	57	1	1	57	30	36	14	54.9286684433001326511	28.7523800486961320644	34.0314872311411562578	14.6483870802432765146
5.0.14.0	win	042919	15:02:16	008	1	game	3	selection	425	1	107	107	0	slot1	300	300	1	1	1	57	57	37	47	34	7235	52	1	1	52	26	38	14	55.7920019388339625266	27.0946002517890534023	32.4089067685200333813	12.5948503724853928532
5.0.14.0	win	042919	15:02:16	008	1	game	3	iti	428	1	107	107	0	0	2000	300	1	1	1	52	52	37	47	34	7235	52	1	1	52	26	38	14	55.7920019388339625266	27.0946002517890534023	32.4089067685200333813	12.5948503724853928532
5.0.14.0	win	042919	15:02:16	008	1	game	3	selection	429	1	108	108	0	slot1	345	345	1	1	1	52	52	37	47	34	7298	63	1	1	63	33	36	14	59.0778868177631224512	29.2807395813948225793	35.9695245369226057619	8.4831430752933556505
5.0.14.0	win	042919	15:02:16	008	1	game	3	iti	432	1	108	108	0	0	2000	345	1	1	1	63	63	37	47	34	7298	63	1	1	63	33	36	14	59.0778868177631224512	29.2807395813948225793	35.9695245369226057619	8.4831430752933556505
5.0.14.0	win	042919	15:02:16	008	1	game	3	selection	433	1	109	109	0	slot1	506	506	1	1	1	63	63	37	47	34	7362	64	1	1	64	32	33	7	60.5633454331842600027	27.4590227923560661338	34.0539545061047874697	5.0074748873088168466
5.0.14.0	win	042919	15:02:16	008	1	game	3	iti	436	1	109	109	0	0	2000	506	1	1	1	64	64	37	47	34	7362	64	1	1	64	32	33	7	60.5633454331842600027	27.4590227923560661338	34.0539545061047874697	5.0074748873088168466
5.0.14.0	win	042919	15:02:16	008	1	game	3	selection	437	1	110	110	0	slot1	372	372	1	1	1	64	64	37	47	34	7419	57	1	1	57	26	34	1	59.5401690280107160902	31.2057671875563471531	37.0630902799987609342	1.8266234926886033563
5.0.14.0	win	042919	15:02:16	008	1	game	3	iti	440	1	110	110	0	0	2000	372	1	1	1	57	57	37	47	34	7419	57	1	1	57	26	34	1	59.5401690280107160902	31.2057671875563471531	37.0630902799987609342	1.8266234926886033563
5.0.14.0	win	042919	15:02:16	008	1	game	3	selection	441	1	111	111	0	slot1	376	376	1	1	1	57	57	37	47	34	7484	65	1	1	65	37	33	1	59.3510512450623579639	33.753130077290528277	36.1432877075193843552	1.3936692272298278894
5.0.14.0	win	042919	15:02:16	008	1	game	3	iti	444	1	111	111	0	0	2000	376	1	1	1	65	65	37	47	34	7484	65	1	1	65	37	33	1	59.3510512450623579639	33.753130077290528277	36.1432877075193843552	1.3936692272298278894
5.0.14.0	win	042919	15:02:16	008	1	game	3	selection	445	1	112	112	0	slot1	268	268	1	1	1	65	65	37	47	34	7541	57	1	1	57	45	33	6	57.0346249325187955037	38.2476026606020411691	35.8485356238686350139	-0.2267770118250846956
5.0.14.0	win	042919	15:02:16	008	1	game	3	iti	448	1	112	112	0	0	2000	268	1	1	1	57	57	37	47	34	7541	57	1	1	57	45	33	6	57.0346249325187955037	38.2476026606020411691	35.8485356238686350139	-0.2267770118250846956
5.0.14.0	win	042919	15:02:16	008	1	game	3	selection	449	1	113	113	0	slot1	269	269	1	1	1	57	57	37	47	34	7602	61	1	1	61	41	34	2	53.8892731774231492636	36.8591351252100380975	35.5955901753286383382	-0.9626730920268007363
5.0.14.0	win	042919	15:02:16	008	1	game	3	iti	452	1	113	113	0	0	2000	269	1	1	1	61	61	37	47	34	7602	61	1	1	61	41	34	2	53.8892731774231492636	36.8591351252100380975	35.5955901753286383382	-0.9626730920268007363
5.0.14.0	win	042919	15:02:16	008	1	game	3	selection	453	1	114	114	0	slot1	403	403	1	1	1	61	61	37	47	34	7651	49	1	1	49	41	37	1	50.3287651756851772689	39.4306668765468515403	37.5661926410002138255	-0.8270840991084333904
5.0.14.0	win	042919	15:02:16	008	1	game	3	iti	456	1	114	114	0	0	2000	403	1	1	1	49	49	37	47	34	7651	49	1	1	49	41	37	1	50.3287651756851772689	39.4306668765468515403	37.5661926410002138255	-0.8270840991084333904
5.0.14.0	win	042919	15:02:16	008	1	game	3	selection	457	1	115	115	0	slot1	338	338	1	1	1	49	49	37	47	34	7698	47	1	1	47	37	36	1	51.6500062698563837671	37.8987061291487137282	35.9587732129133783587	0.9982333444287965207
5.0.14.0	win	042919	15:02:16	008	1	game	3	iti	460	1	115	115	0	0	2000	338	1	1	1	47	47	37	47	34	7698	47	1	1	47	37	36	1	51.6500062698563837671	37.8987061291487137282	35.9587732129133783587	0.9982333444287965207
5.0.14.0	win	042919	15:02:16	008	1	game	3	selection	461	1	116	116	0	slot1	561	561	1	1	1	47	47	37	47	34	7735	37	2	2	37	40	26	1	47.547092275949346174	37.309553702253396068	34.4273816167645136943	3.7498727360283616861
5.0.14.0	win	042919	15:02:16	008	1	game	3	iti	464	1	116	116	0	0	2000	561	1	1	3	47	37	37	47	34	7735	37	2	2	37	40	26	1	47.547092275949346174	37.309553702253396068	34.4273816167645136943	3.7498727360283616861
5.0.14.0	win	042919	15:02:16	008	1	game	3	selection	465	1	117	117	0	slot1	562	562	1	2	3	47	37	37	47	34	7781	46	1	1	46	40	36	1	42.4912596425751729612	39.5186498179252794216	37.8239434903364681873	3.0609757532157289006
5.0.14.0	win	042919	15:02:16	008	1	game	3	iti	468	1	117	117	0	0	2000	562	1	2	3	47	46	37	47	34	7781	46	1	1	46	40	36	1	42.4912596425751729612	39.5186498179252794216	37.8239434903364681873	3.0609757532157289006
5.0.14.0	win	042919	15:02:16	008	1	game	3	selection	469	1	118	118	0	slot1	715	715	1	2	3	47	46	37	47	34	7818	37	2	3	37	40	42	5	43.4553455295582296003	36.8606413802151067216	40.0691267217301003711	4.473128005375141214
5.0.14.0	win	042919	15:02:16	008	1	game	3	iti	472	1	118	118	0	0	2000	715	1	2	3	47	37	37	47	34	7818	37	2	3	37	40	42	5	43.4553455295582296003	36.8606413802151067216	40.0691267217301003711	4.473128005375141214
5.0.14.0	win	042919	15:02:16	008	1	game	3	selection	473	1	119	119	0	slot4	223	223	4	2	3	47	37	37	47	34	7833	15	2	1	47	35	36	15	43.0182651916572922346	35.2447887377552078192	38.5467800958055732963	7.5419799476069240285
5.0.14.0	win	042919	15:02:16	008	1	game	3	iti	476	1	119	119	0	0	2000	223	4	2	3	47	37	37	47	15	7833	15	2	1	47	35	36	15	43.0182651916572922346	35.2447887377552078192	38.5467800958055732963	7.5419799476069240285
5.0.14.0	win	042919	15:02:16	008	1	game	3	selection	477	1	120	120	0	slot2	273	273	2	2	3	47	37	37	47	15	7866	33	2	1	39	33	35	2	42.3868974199830859106	35.46556177361378559	38.0387435846474915024	5.3753048043697102543
5.0.14.0	win	042919	15:02:16	008	1	game	3	iti	480	1	120	120	0	0	2000	273	2	2	3	47	37	33	47	15	7866	33	2	1	39	33	35	2	42.3868974199830859106	35.46556177361378559	38.0387435846474915024	5.3753048043697102543
5.0.14.0	win	042919	15:02:16	008	1	game	3	selection	481	1	121	121	0	slot3	245	245	3	1	3	47	37	33	47	15	7907	41	2	1	44	38	41	6	44.6997787056426858499	36.0944770424174237178	41.860917571563739159	9.327798157482030561
5.0.14.0	win	042919	15:02:16	008	1	game	3	iti	484	1	121	121	0	0	2000	245	3	1	3	41	37	33	41	15	7907	41	2	1	44	38	41	6	44.6997787056426858499	36.0944770424174237178	41.860917571563739159	9.327798157482030561
5.0.14.0	win	042919	15:02:16	008	1	game	3	selection	485	1	122	122	0	slot3	266	266	3	1	3	41	37	33	41	15	7951	44	2	1	47	33	44	4	44.1016942307949193491	38.7866257714759186115	39.0705648371773008876	9.3769358036368295473
5.0.14.0	win	042919	15:02:16	008	1	game	3	iti	488	1	122	122	0	0	2000	266	3	1	3	44	37	33	44	15	7951	44	2	1	47	33	44	4	44.1016942307949193491	38.7866257714759186115	39.0705648371773008876	9.3769358036368295473
5.0.14.0	win	042919	15:02:16	008	1	game	3	selection	489	1	123	123	0	slot3	494	494	3	1	3	44	37	33	44	15	7994	43	2	2	38	44	43	13	40.3726353210003239269	39.6030633776950011793	39.3006233253676242612	11.0035233487534185315
5.0.14.0	win	042919	15:02:16	008	1	game	3	iti	492	1	123	123	0	0	2000	494	3	1	3	43	37	33	43	15	7994	43	2	2	38	44	43	13	40.3726353210003239269	39.6030633776950011793	39.3006233253676242612	11.0035233487534185315
5.0.14.0	win	042919	15:02:16	008	1	game	3	selection	493	1	124	124	0	slot3	426	426	3	1	3	43	37	33	43	15	8026	32	2	1	41	35	32	2	44.9520281297658925723	38.2486978862844466676	38.5368102693795151481	11.1450162218948634063
5.0.14.0	win	042919	15:02:16	008	1	game	3	iti	496	1	124	124	0	0	2000	426	3	1	1	37	37	33	32	15	8026	32	2	1	41	35	32	2	44.9520281297658925723	38.2486978862844466676	38.5368102693795151481	11.1450162218948634063
5.0.14.0	win	042919	15:02:16	008	1	game	3	selection	497	1	125	125	0	slot1	35	35	1	1	1	37	37	33	32	15	8072	46	1	1	46	44	42	10	47.5530944525511429788	41.5294125713249755449	33.2498778894227697833	10.7245573924621879769
5.0.14.0	win	042919	15:02:16	008	1	game	3	iti	500	1	125	125	0	0	2000	35	1	1	1	46	46	33	32	15	8072	46	1	1	46	44	42	10	47.5530944525511429788	41.5294125713249755449	33.2498778894227697833	10.7245573924621879769
5.0.14.0	win	042919	15:02:16	008	1	game	3	selection	501	1	126	126	0	slot4	292	292	4	2	1	46	46	33	32	15	8089	17	2	1	52	48	39	17	49.2612689637118563724	44.9806469032258604557	33.9019645386531891518	11.8986857369115259786
5.0.14.0	win	042919	15:02:16	008	1	game	3	iti	504	1	126	126	0	0	2000	292	4	2	1	46	46	33	32	17	8089	17	2	1	52	48	39	17	49.2612689637118563724	44.9806469032258604557	33.9019645386531891518	11.8986857369115259786
5.0.14.0	win	042919	15:02:16	008	1	game	3	selection	505	1	127	127	0	slot2	280	280	2	2	1	46	46	33	32	17	8138	49	2	1	54	49	31	16	52.6659879631311369508	44.2597754776059346682	30.9963582499329142195	12.6684278578466127385
5.0.14.0	win	042919	15:02:16	008	1	game	3	iti	508	1	127	127	0	0	2000	280	2	2	2	49	46	49	32	17	8138	49	2	1	54	49	31	16	52.6659879631311369508	44.2597754776059346682	30.9963582499329142195	12.6684278578466127385
5.0.14.0	win	042919	15:02:16	008	1	game	3	selection	509	1	128	128	0	slot2	484	484	2	1	2	49	46	49	32	17	8183	45	2	1	58	45	37	19	58.6038917309801874467	41.8177667113691668987	31.893118716602572249	17.4492621765323718819
5.0.14.0	win	042919	15:02:16	008	1	game	3	iti	512	1	128	128	0	0	2000	484	2	1	1	46	46	45	32	17	8183	45	2	1	58	45	37	19	58.6038917309801874467	41.8177667113691668987	31.893118716602572249	17.4492621765323718819
5.0.14.0	win	042919	15:02:16	008	1	game	3	selection	513	1	129	129	0	slot2	339	339	2	2	1	46	46	45	32	17	8217	34	2	1	67	34	23	16	60.8529872966609204354	37.4614679520267728208	26.1237985124437059881	21.1428633252280597787
5.0.14.0	win	042919	15:02:16	008	1	game	3	iti	516	1	129	129	0	0	2000	339	2	2	1	46	46	34	32	17	8217	34	2	1	67	34	23	16	60.8529872966609204354	37.4614679520267728208	26.1237985124437059881	21.1428633252280597787
5.0.14.0	win	042919	15:02:16	008	1	game	3	selection	517	1	130	130	0	slot3	357	357	3	2	1	46	46	34	32	17	8239	22	2	1	60	40	22	25	60.65826651919540069	38.9565975170120069038	27.8348818386459058161	22.1733380271729529909
5.0.14.0	win	042919	15:02:16	008	1	game	3	iti	520	1	130	130	0	0	2000	357	3	2	1	46	46	34	22	17	8239	22	2	1	60	40	22	25	60.65826651919540069	38.9565975170120069038	27.8348818386459058161	22.1733380271729529909
5.0.14.0	win	042919	15:02:16	008	1	game	3	selection	521	1	131	131	0	slot1	727	727	1	1	1	46	46	34	22	17	8293	54	1	1	54	31	25	27	59.5464884022394116414	36.2930923261917470768	30.71181967154470982	22.3761512235705097851
5.0.14.0	win	042919	15:02:16	008	1	game	3	iti	524	1	131	131	0	0	2000	727	1	1	1	54	54	34	22	17	8293	54	1	1	54	31	25	27	59.5464884022394116414	36.2930923261917470768	30.71181967154470982	22.3761512235705097851
5.0.14.0	win	042919	15:02:16	008	1	game	3	selection	525	1	132	132	0	slot1	775	775	1	1	1	54	54	34	22	17	8353	60	1	1	60	41	26	21	55.1947911385256091421	40.6657434024385509019	29.657907318475437819	22.8372213201941391958
5.0.14.0	win	042919	15:02:16	008	1	game	3	iti	528	1	132	132	0	0	2000	775	1	1	1	60	60	34	22	17	8353	60	1	1	60	41	26	21	55.1947911385256091421	40.6657434024385509019	29.657907318475437819	22.8372213201941391958
5.0.14.0	win	042919	15:02:16	008	1	game	3	selection	529	1	133	133	0	slot1	394	394	1	1	1	60	60	34	22	17	8409	56	1	1	56	46	30	24	55.4022372235059705758	44.9600571827670378866	30.5957290820627036965	25.7091535921702707412
5.0.14.0	win	042919	15:02:16	008	1	game	3	iti	532	1	133	133	0	0	2000	394	1	1	1	56	56	34	22	17	8409	56	1	1	56	46	30	24	55.4022372235059705758	44.9600571827670378866	30.5957290820627036965	25.7091535921702707412
5.0.14.0	win	042919	15:02:16	008	1	game	3	selection	533	1	134	134	0	slot1	269	269	1	1	1	56	56	34	22	17	8470	61	1	1	61	46	30	25	57.5875840595874919359	47.3594106533739420684	31.2729675118349064178	26.7798275125012246178
5.0.14.0	win	042919	15:02:16	008	1	game	3	iti	536	1	134	134	0	0	2000	269	1	1	1	61	61	34	22	17	8470	61	1	1	61	46	30	25	57.5875840595874919359	47.3594106533739420684	31.2729675118349064178	26.7798275125012246178
5.0.14.0	win	042919	15:02:16	008	1	game	3	selection	537	1	135	135	0	slot1	257	257	1	1	1	61	61	34	22	17	8527	57	1	1	57	51	34	30	56.5749983337504289693	46.6251429173319209553	29.6350072786965981209	23.9934286956644911015
5.0.14.0	win	042919	15:02:16	008	1	game	3	iti	540	1	135	135	0	0	2000	257	1	1	1	57	57	34	22	17	8527	57	1	1	57	51	34	30	56.5749983337504289693	46.6251429173319209553	29.6350072786965981209	23.9934286956644911015
5.0.14.0	win	042919	15:02:16	008	1	game	3	selection	541	1	136	136	0	slot1	251	251	1	1	1	57	57	34	22	17	8590	63	1	1	63	38	31	18	60.8971087734163205596	43.2603668492876636265	31.1890784975090511466	18.9166446530671663595
5.0.14.0	win	042919	15:02:16	008	1	game	3	iti	544	1	136	136	0	0	2000	251	1	1	1	63	63	34	22	17	8590	63	1	1	63	38	31	18	60.8971087734163205596	43.2603668492876636265	31.1890784975090511466	18.9166446530671663595
5.0.14.0	win	042919	15:02:16	008	1	game	3	selection	545	1	137	137	0	slot1	764	764	1	1	1	63	63	34	22	17	8650	60	1	1	60	50	27	20	58.2085622301702940717	42.7198302020164462078	29.544707870611148337	21.0797646763469082032
5.0.14.0	win	042919	15:02:16	008	1	game	3	iti	548	1	137	137	0	0	2000	764	1	1	1	60	60	34	22	17	8650	60	1	1	60	50	27	20	58.2085622301702940717	42.7198302020164462078	29.544707870611148337	21.0797646763469082032
5.0.14.0	win	042919	15:02:16	008	1	game	3	selection	549	1	138	138	0	slot1	262	262	1	1	1	60	60	34	22	17	8713	63	1	1	63	42	30	25	57.458963267903541805	45.6284689902204192435	29.5996290728633439926	23.147502100596490493
5.0.14.0	win	042919	15:02:16	008	1	game	3	iti	552	1	138	138	0	0	2000	262	1	1	1	63	63	34	22	17	8713	63	1	1	63	42	30	25	57.458963267903541805	45.6284689902204192435	29.5996290728633439926	23.147502100596490493
5.0.14.0	win	042919	15:02:16	008	1	game	3	selection	553	1	139	139	0	slot1	13	13	1	1	1	63	63	34	22	17	8770	57	1	1	57	43	25	19	57.0575365216276821911	41.981273808319023999	28.8911503966848144387	21.1690290464099888368
5.0.14.0	win	042919	15:02:16	008	1	game	3	iti	556	1	139	139	0	0	2000	13	1	1	1	57	57	34	22	17	8770	57	1	1	57	43	25	19	57.0575365216276821911	41.981273808319023999	28.8911503966848144387	21.1690290464099888368
5.0.14.0	win	042919	15:02:16	008	1	game	3	selection	557	1	140	140	0	slot1	281	281	1	1	1	57	57	34	22	17	8824	54	1	1	54	37	27	23	58.3576306896363163901	41.6959955108326738582	26.8204703180895265291	22.0791829430322863459
5.0.14.0	win	042919	15:02:16	008	1	game	3	iti	560	1	140	140	0	0	2000	281	1	1	1	54	54	34	22	17	8824	54	1	1	54	37	27	23	58.3576306896363163901	41.6959955108326738582	26.8204703180895265291	22.0791829430322863459
5.0.14.0	win	042919	15:02:16	008	1	game	3	selection	561	1	141	141	0	slot1	385	385	1	1	1	54	54	34	22	17	8883	59	1	1	59	47	20	31	55.9981967613729878508	37.9888579674830850763	25.3920984068539183909	24.6633561924374689056
5.0.14.0	win	042919	15:02:16	008	1	game	3	iti	564	1	141	141	0	0	2000	385	1	1	1	59	59	34	22	17	8883	59	1	1	59	47	20	31	55.9981967613729878508	37.9888579674830850763	25.3920984068539183909	24.6633561924374689056
5.0.14.0	win	042919	15:02:16	008	1	game	3	selection	565	1	142	142	0	slot1	1086	1086	1	1	1	59	59	34	22	17	8940	57	1	1	57	46	24	17	57.1879785983394128834	40.715247826260181796	22.9429937687230207644	25.9391857292555485515
5.0.14.0	win	042919	15:02:16	008	1	game	3	iti	568	1	142	142	0	0	2000	1086	1	1	1	57	57	34	22	17	8940	57	1	1	57	46	24	17	57.1879785983394128834	40.715247826260181796	22.9429937687230207644	25.9391857292555485515
5.0.14.0	win	042919	15:02:16	008	1	game	3	selection	569	1	143	143	0	slot1	429	429	1	1	1	57	57	34	22	17	8995	55	1	1	55	41	18	24	60.7341379218959431796	40.1742536313836851036	22.599914173932670991	28.0848659856917279853
5.0.14.0	win	042919	15:02:16	008	1	game	3	iti	572	1	143	143	0	0	2000	429	1	1	1	55	55	34	22	17	8995	55	1	1	55	41	18	24	60.7341379218959431796	40.1742536313836851036	22.599914173932670991	28.0848659856917279853
5.0.14.0	win	042919	15:02:16	008	1	game	3	selection	573	1	144	144	0	slot1	473	473	1	1	1	55	55	34	22	17	9064	69	1	1	69	33	17	31	63.6921878349519943185	37.6245362032697059362	21.910610287563621057	28.2744953541024877097
5.0.14.0	win	042919	15:02:16	008	1	game	3	iti	576	1	144	144	0	0	2000	473	1	1	1	69	69	34	22	17	9064	69	1	1	69	33	17	31	63.6921878349519943185	37.6245362032697059362	21.910610287563621057	28.2744953541024877097
5.0.14.0	win	042919	15:02:16	008	1	game	3	selection	577	1	145	145	0	slot1	416	416	1	1	1	69	69	34	22	17	9134	70	1	1	70	37	20	29	64.3166534614905884837	33.6751913523938526396	18.2351357099943420792	29.3560184577098937098
5.0.14.0	win	042919	15:02:16	008	1	game	3	iti	580	1	145	145	0	0	2000	416	1	1	1	70	70	34	22	17	9134	70	1	1	70	37	20	29	64.3166534614905884837	33.6751913523938526396	18.2351357099943420792	29.3560184577098937098
5.0.14.0	win	042919	15:02:16	008	1	game	3	selection	581	1	146	146	0	slot1	452	452	1	1	1	70	70	34	22	17	9200	66	1	1	66	35	17	29	66.1745093475333874267	37.3546371991428003412	15.3187241466274244317	28.2607688373411924943
5.0.14.0	win	042919	15:02:16	008	1	game	3	iti	584	1	146	146	0	0	2000	452	1	1	1	66	66	34	22	17	9200	66	1	1	66	35	17	29	66.1745093475333874267	37.3546371991428003412	15.3187241466274244317	28.2607688373411924943
5.0.14.0	win	042919	15:02:16	008	1	game	3	selection	585	1	147	147	0	slot1	639	639	1	1	1	66	66	34	22	17	9257	57	1	1	57	43	24	35	64.6398863453769081389	39.5223509511282173889	18.4865002977691261776	27.1578412851909050119
5.0.14.0	win	042919	15:02:16	008	1	game	3	iti	588	1	147	147	0	0	2000	639	1	1	1	57	57	34	22	17	9257	57	1	1	57	43	24	35	64.6398863453769081389	39.5223509511282173889	18.4865002977691261776	27.1578412851909050119
5.0.14.0	win	042919	15:02:16	008	1	game	3	selection	589	1	148	148	0	slot1	648	648	1	1	1	57	57	34	22	17	9314	57	1	1	57	37	19	29	59.9393964529975065147	39.4268552962691600783	19.4185223149870225257	28.0675416047066015324
5.0.14.0	win	042919	15:02:16	008	1	game	3	iti	592	1	148	148	0	0	2000	648	1	1	1	57	57	34	22	17	9314	57	1	1	57	37	19	29	59.9393964529975065147	39.4268552962691600783	19.4185223149870225257	28.0675416047066015324
5.0.14.0	win	042919	15:02:16	008	1	game	3	selection	593	1	149	149	0	slot1	463	463	1	1	1	57	57	34	22	17	9373	59	1	1	59	43	19	38	60.1872732823416214387	46.1528112835110277956	20.6668089291229470916	37.5492557465040306397
5.0.14.0	win	042919	15:02:16	008	1	game	3	iti	596	1	149	149	0	0	2000	463	1	1	1	59	59	34	22	17	9373	59	1	1	59	43	19	38	60.1872732823416214387	46.1528112835110277956	20.6668089291229470916	37.5492557465040306397
5.0.14.0	win	042919	15:02:16	008	1	game	3	selection	597	1	150	150	0	slot1	829	829	1	1	1	59	59	34	22	17	9427	54	1	1	54	52	11	41	57.5359484918588961477	50.5379868604665531961	19.1860179601676108518	40.1061021763912748384
5.0.14.0	win	042919	15:02:16	008	1	game	3	iti	600	1	150	150	0	0	2000	829	1	1	1	54	54	34	22	17	9427	54	1	1	54	52	11	41	57.5359484918588961477	50.5379868604665531961	19.1860179601676108518	40.1061021763912748384
