build	computer.platform	date	time	subject	group	blockcode	blocknum	trialcode	trialnum	values.countRounds	values.TotaltrialCount	values.trialCount_perRound	values.noResponseCount	response	latency	values.selectionRT	values.selectedSlot	values.choice	values.currenthighestSeenPayOffSlot	values.currenthighestSeenPayOff	values.lastSeenPayOff1	values.lastSeenPayOff2	values.lastSeenPayOff3	values.lastSeenPayOff4	values.total	values.currentPayoff	values.highestPayOffSelected	values.currentHighestPayOffSlot	values.payOff1	values.payOff2	values.payOff3	values.payOff4	values.mean1	values.mean2	values.mean3	values.mean4
5.0.14.0	win	042919	13:55:28	007	1	demo	1	selection	2	0	1	1	0	slot2	667	667	2	2	0	0	0	0	0	0	11	11	2	4	35	11	23	45	33.8461004747978861928	12.5577991102705475157	22.0636878271772900462	38.0088092292604500244
5.0.14.0	win	042919	13:55:28	007	1	demo	1	iti	5	0	1	1	0	0	2000	667	2	2	2	11	0	11	0	0	11	11	2	4	35	11	23	45	33.8461004747978861928	12.5577991102705475157	22.0636878271772900462	38.0088092292604500244
5.0.14.0	win	042919	13:55:28	007	1	demo	1	selection	6	0	2	2	0	slot4	299	299	4	2	2	11	0	11	0	0	53	42	1	4	39	7	26	42	33.2757234960002463708	12.9958824736734541716	26.1286134081679151109	39.9067061169386434472
5.0.14.0	win	042919	13:55:28	007	1	demo	1	iti	9	0	2	2	0	0	2000	299	4	2	4	42	0	11	0	42	53	42	1	4	39	7	26	42	33.2757234960002463708	12.9958824736734541716	26.1286134081679151109	39.9067061169386434472
5.0.14.0	win	042919	13:55:28	007	1	demo	1	selection	10	0	3	3	0	slot2	310	310	2	2	4	42	0	11	0	42	64	11	2	4	31	11	22	44	32.0568449931494967586	14.5896238562760860447	24.2166623290913172184	40.4937753412085541527
5.0.14.0	win	042919	13:55:28	007	1	demo	1	iti	13	0	3	3	0	0	2000	310	2	2	4	42	0	11	0	42	64	11	2	4	31	11	22	44	32.0568449931494967586	14.5896238562760860447	24.2166623290913172184	40.4937753412085541527
5.0.14.0	win	042919	13:55:28	007	1	demo	1	selection	14	0	4	4	1	0	1500	1500	0	0	4	42	0	11	0	42	64	0	0	4	30	15	35	42	30.9460147892534465086	12.4218321075095126105	32.0532748736644848009	41.0569947245801714075
5.0.14.0	win	042919	13:55:28	007	1	demo	1	iti	16	0	4	4	1	0	2000	1500	0	0	4	42	0	11	0	42	64	0	0	4	30	15	35	42	30.9460147892534465086	12.4218321075095126105	32.0532748736644848009	41.0569947245801714075
5.0.14.0	win	042919	13:55:28	007	1	demo	1	selection	17	0	5	5	1	slot3	279	279	3	2	4	42	0	11	0	42	97	33	2	4	24	19	33	39	28.9079817762130133474	16.7374300154659039208	35.1537268061147116782	43.2657936498432817984
5.0.14.0	win	042919	13:55:28	007	1	demo	1	iti	20	0	5	5	1	0	2000	279	3	2	4	42	0	11	33	42	97	33	2	4	24	19	33	39	28.9079817762130133474	16.7374300154659039208	35.1537268061147116782	43.2657936498432817984
5.0.14.0	win	042919	13:55:28	007	1	game	3	selection	1	1	1	1	0	slot1	712	712	1	2	0	0	0	0	0	0	24	24	2	2	24	76	60	41	23.8934976019457749885	81.9626215003120108804	58.7766953263790270512	41.8498153332925042491
5.0.14.0	win	042919	13:55:28	007	1	game	3	iti	4	1	1	1	0	0	2000	712	1	2	1	24	24	0	0	0	24	24	2	2	24	76	60	41	23.8934976019457749885	81.9626215003120108804	58.7766953263790270512	41.8498153332925042491
5.0.14.0	win	042919	13:55:28	007	1	game	3	selection	5	1	2	2	0	slot3	476	476	3	2	1	24	24	0	0	0	77	53	2	2	26	87	53	43	24.0161993126568980017	79.2937717187369486282	53.869739453930051809	41.4906036177261512421
5.0.14.0	win	042919	13:55:28	007	1	game	3	iti	8	1	2	2	0	0	2000	476	3	2	3	53	24	0	53	0	77	53	2	2	26	87	53	43	24.0161993126568980017	79.2937717187369486282	53.869739453930051809	41.4906036177261512421
5.0.14.0	win	042919	13:55:28	007	1	game	3	selection	9	1	3	3	0	slot2	285	285	2	2	3	53	24	0	53	0	159	82	1	2	28	82	52	39	22.8129966169118496566	81.3630381619304046126	53.6667081773335681305	39.5097799908294078364
5.0.14.0	win	042919	13:55:28	007	1	game	3	iti	12	1	3	3	0	0	2000	285	2	2	2	82	24	82	53	0	159	82	1	2	28	82	52	39	22.8129966169118496566	81.3630381619304046126	53.6667081773335681305	39.5097799908294078364
5.0.14.0	win	042919	13:55:28	007	1	game	3	selection	13	1	4	4	0	slot4	296	296	4	2	2	82	24	82	53	0	199	40	2	2	23	90	52	40	26.5357382570657733822	83.5995689900312726195	50.5506473976656138802	42.3478208157592206362
5.0.14.0	win	042919	13:55:28	007	1	game	3	iti	16	1	4	4	0	0	2000	296	4	2	2	82	24	82	53	40	199	40	2	2	23	90	52	40	26.5357382570657733822	83.5995689900312726195	50.5506473976656138802	42.3478208157592206362
5.0.14.0	win	042919	13:55:28	007	1	game	3	selection	17	1	5	5	0	slot2	295	295	2	1	2	82	24	82	53	40	281	82	1	2	32	82	53	46	29.5002618107180119011	82.3060675294642862809	51.8024638024661854274	43.2041398545439108148
5.0.14.0	win	042919	13:55:28	007	1	game	3	iti	20	1	5	5	0	0	2000	295	2	1	2	82	24	82	53	40	281	82	1	2	32	82	53	46	29.5002618107180119011	82.3060675294642862809	51.8024638024661854274	43.2041398545439108148
5.0.14.0	win	042919	13:55:28	007	1	game	3	selection	21	1	6	6	0	slot2	352	352	2	1	2	82	24	82	53	40	368	87	1	2	33	87	53	44	27.5926196212215657511	82.0825859016338057472	53.5554129931061098091	47.3292039237925479256
5.0.14.0	win	042919	13:55:28	007	1	game	3	iti	24	1	6	6	0	0	2000	352	2	1	2	87	24	87	53	40	368	87	1	2	33	87	53	44	27.5926196212215657511	82.0825859016338057472	53.5554129931061098091	47.3292039237925479256
5.0.14.0	win	042919	13:55:28	007	1	game	3	selection	25	1	7	7	0	slot2	487	487	2	1	2	87	24	87	53	40	443	75	1	2	29	75	50	47	31.2883942423978709257	82.3374880672632087908	53.8004420431275889314	50.9551527646670052718
5.0.14.0	win	042919	13:55:28	007	1	game	3	iti	28	1	7	7	0	0	2000	487	2	1	2	75	24	75	53	40	443	75	1	2	29	75	50	47	31.2883942423978709257	82.3374880672632087908	53.8004420431275889314	50.9551527646670052718
5.0.14.0	win	042919	13:55:28	007	1	game	3	selection	29	1	8	8	0	slot2	371	371	2	1	2	75	24	75	53	40	535	92	1	2	13	92	61	47	26.5959906534889007901	86.3136312459705123956	60.1182287585311740941	45.1557014837921357753
5.0.14.0	win	042919	13:55:28	007	1	game	3	iti	32	1	8	8	0	0	2000	371	2	1	2	92	24	92	53	40	535	92	1	2	13	92	61	47	26.5959906534889007901	86.3136312459705123956	60.1182287585311740941	45.1557014837921357753
5.0.14.0	win	042919	13:55:28	007	1	game	3	selection	33	1	9	9	0	slot2	316	316	2	1	2	92	24	92	53	40	622	87	1	2	30	87	60	45	26.5031957006867493476	83.3545162968246131641	62.3439407804357870191	44.1083553003972994588
5.0.14.0	win	042919	13:55:28	007	1	game	3	iti	36	1	9	9	0	0	2000	316	2	1	2	87	24	87	53	40	622	87	1	2	30	87	60	45	26.5031957006867493476	83.3545162968246131641	62.3439407804357870191	44.1083553003972994588
5.0.14.0	win	042919	13:55:28	007	1	game	3	selection	37	1	10	10	0	slot2	341	341	2	1	2	87	24	87	53	40	701	79	1	2	33	79	58	45	24.797765583243105425	88.8963549348119670412	66.4993309240666405913	43.8070445818314908593
5.0.14.0	win	042919	13:55:28	007	1	game	3	iti	40	1	10	10	0	0	2000	341	2	1	2	79	24	79	53	40	701	79	1	2	33	79	58	45	24.797765583243105425	88.8963549348119670412	66.4993309240666405913	43.8070445818314908593
5.0.14.0	win	042919	13:55:28	007	1	game	3	selection	41	1	11	11	0	slot2	309	309	2	1	2	79	24	79	53	40	789	88	1	2	30	88	72	48	27.6632930480555359054	91.5782821239700268734	65.6161128983762580447	48.356304115753005135
5.0.14.0	win	042919	13:55:28	007	1	game	3	iti	44	1	11	11	0	0	2000	309	2	1	2	88	24	88	53	40	789	88	1	2	30	88	72	48	27.6632930480555359054	91.5782821239700268734	65.6161128983762580447	48.356304115753005135
5.0.14.0	win	042919	13:55:28	007	1	game	3	selection	45	1	12	12	0	slot2	500	500	2	1	2	88	24	88	53	40	878	89	1	2	26	89	70	49	30.9419935612115288848	95.3549735762396153405	63.3819545162037556452	48.4252550106532666518
5.0.14.0	win	042919	13:55:28	007	1	game	3	iti	48	1	12	12	0	0	2000	500	2	1	2	89	24	89	53	40	878	89	1	2	26	89	70	49	30.9419935612115288848	95.3549735762396153405	63.3819545162037556452	48.4252550106532666518
5.0.14.0	win	042919	13:55:28	007	1	game	3	selection	49	1	13	13	0	slot2	252	252	2	1	2	89	24	89	53	40	975	97	1	2	30	97	65	47	31.811414547738756653	97.6854707636398558179	64.5701217725650593593	47.251936400456976628
5.0.14.0	win	042919	13:55:28	007	1	game	3	iti	52	1	13	13	0	0	2000	252	2	1	2	97	24	97	53	40	975	97	1	2	30	97	65	47	31.811414547738756653	97.6854707636398558179	64.5701217725650593593	47.251936400456976628
5.0.14.0	win	042919	13:55:28	007	1	game	3	selection	53	1	14	14	0	slot2	281	281	2	1	2	97	24	97	53	40	1064	89	1	2	31	89	73	47	35.892030774744206667	95.0097251837310494693	66.9681683201546888995	51.0857828502666748705
5.0.14.0	win	042919	13:55:28	007	1	game	3	iti	56	1	14	14	0	0	2000	281	2	1	2	89	24	89	53	40	1064	89	1	2	31	89	73	47	35.892030774744206667	95.0097251837310494693	66.9681683201546888995	51.0857828502666748705
5.0.14.0	win	042919	13:55:28	007	1	game	3	selection	57	1	15	15	0	slot2	339	339	2	1	2	89	24	89	53	40	1159	95	1	2	27	95	71	48	31.3994783009827465037	95.2686182331560189596	71.595081855273946303	45.6638892328041308133
5.0.14.0	win	042919	13:55:28	007	1	game	3	iti	60	1	15	15	0	0	2000	339	2	1	2	95	24	95	53	40	1159	95	1	2	27	95	71	48	31.3994783009827465037	95.2686182331560189596	71.595081855273946303	45.6638892328041308133
5.0.14.0	win	042919	13:55:28	007	1	game	3	selection	61	1	16	16	0	slot2	596	596	2	1	2	95	24	95	53	40	1259	100	1	2	29	100	74	40	34.5371560068745537819	94.6894359271599768135	72.5881626024390271823	40.3010168562541934989
5.0.14.0	win	042919	13:55:28	007	1	game	3	iti	64	1	16	16	0	0	2000	596	2	1	2	100	24	100	53	40	1259	100	1	2	29	100	74	40	34.5371560068745537819	94.6894359271599768135	72.5881626024390271823	40.3010168562541934989
5.0.14.0	win	042919	13:55:28	007	1	game	3	selection	65	1	17	17	0	slot2	586	586	2	1	2	100	24	100	53	40	1349	90	1	2	28	90	63	49	34.5268991295659617435	94.2686359916500435929	68.924270306374211259	42.270054190964778229
5.0.14.0	win	042919	13:55:28	007	1	game	3	iti	68	1	17	17	0	0	2000	586	2	1	2	90	24	90	53	40	1349	90	1	2	28	90	63	49	34.5268991295659617435	94.2686359916500435929	68.924270306374211259	42.270054190964778229
5.0.14.0	win	042919	13:55:28	007	1	game	3	selection	69	1	18	18	0	slot2	517	517	2	1	2	90	24	90	53	40	1446	97	1	2	41	97	74	43	34.0593449150900511313	93.1769671345845722499	71.0750802685594322838	42.7555655764700759391
5.0.14.0	win	042919	13:55:28	007	1	game	3	iti	72	1	18	18	0	0	2000	517	2	1	2	97	24	97	53	40	1446	97	1	2	41	97	74	43	34.0593449150900511313	93.1769671345845722499	71.0750802685594322838	42.7555655764700759391
5.0.14.0	win	042919	13:55:28	007	1	game	3	selection	73	1	19	19	0	slot3	527	527	3	2	2	97	24	97	53	40	1516	70	2	2	31	93	70	47	36.6180740873096937094	91.7002893882390708313	69.5913087412808835097	42.5921339949245023604
5.0.14.0	win	042919	13:55:28	007	1	game	3	iti	76	1	19	19	0	0	2000	527	3	2	2	97	24	97	70	40	1516	70	2	2	31	93	70	47	36.6180740873096937094	91.7002893882390708313	69.5913087412808835097	42.5921339949245023604
5.0.14.0	win	042919	13:55:28	007	1	game	3	selection	77	1	20	20	0	slot2	301	301	2	1	2	97	24	97	70	40	1607	91	1	2	32	91	69	42	38.6511911691448588613	91.9567173373168458284	68.0014409380112709869	42.4832432578782004384
5.0.14.0	win	042919	13:55:28	007	1	game	3	iti	80	1	20	20	0	0	2000	301	2	1	2	91	24	91	70	40	1607	91	1	2	32	91	69	42	38.6511911691448588613	91.9567173373168458284	68.0014409380112709869	42.4832432578782004384
5.0.14.0	win	042919	13:55:28	007	1	game	3	selection	81	1	21	21	0	slot2	256	256	2	1	2	91	24	91	70	40	1704	97	1	2	36	97	66	40	36.8425403816617631492	88.3351965736959243713	65.2376589791185637068	42.007515209642555476
5.0.14.0	win	042919	13:55:28	007	1	game	3	iti	84	1	21	21	0	0	2000	256	2	1	2	97	24	97	70	40	1704	97	1	2	36	97	66	40	36.8425403816617631492	88.3351965736959243713	65.2376589791185637068	42.007515209642555476
5.0.14.0	win	042919	13:55:28	007	1	game	3	selection	85	1	22	22	0	slot2	360	360	2	1	2	97	24	97	70	40	1792	88	1	2	39	88	58	42	40.8467631005520033227	88.844967392606889689	62.7804790836374451146	44.3483058159202201409
5.0.14.0	win	042919	13:55:28	007	1	game	3	iti	88	1	22	22	0	0	2000	360	2	1	2	88	24	88	70	40	1792	88	1	2	39	88	58	42	40.8467631005520033227	88.844967392606889689	62.7804790836374451146	44.3483058159202201409
5.0.14.0	win	042919	13:55:28	007	1	game	3	selection	89	1	23	23	0	slot2	525	525	2	1	2	88	24	88	70	40	1880	88	1	2	45	88	66	57	44.4984918934210185171	86.4212303343218621876	62.3405365659338670525	46.1378021896064609564
5.0.14.0	win	042919	13:55:28	007	1	game	3	iti	92	1	23	23	0	0	2000	525	2	1	2	88	24	88	70	40	1880	88	1	2	45	88	66	57	44.4984918934210185171	86.4212303343218621876	62.3405365659338670525	46.1378021896064609564
5.0.14.0	win	042919	13:55:28	007	1	game	3	selection	93	1	24	24	0	slot2	569	569	2	1	2	88	24	88	70	40	1968	88	1	2	50	88	60	44	52.8112098187161933538	88.7268893396246483007	64.2235055352319079702	43.3164129380238662748
5.0.14.0	win	042919	13:55:28	007	1	game	3	iti	96	1	24	24	0	0	2000	569	2	1	2	88	24	88	70	40	1968	88	1	2	50	88	60	44	52.8112098187161933538	88.7268893396246483007	64.2235055352319079702	43.3164129380238662748
5.0.14.0	win	042919	13:55:28	007	1	game	3	selection	97	1	25	25	0	slot2	398	398	2	1	2	88	24	88	70	40	2057	89	1	2	49	89	69	46	54.1512983068880657811	90.088146908797725132	64.6798383496347355504	42.3969975696385716901
5.0.14.0	win	042919	13:55:28	007	1	game	3	iti	100	1	25	25	0	0	2000	398	2	1	2	89	24	89	70	40	2057	89	1	2	49	89	69	46	54.1512983068880657811	90.088146908797725132	64.6798383496347355504	42.3969975696385716901
5.0.14.0	win	042919	13:55:28	007	1	game	3	selection	101	1	26	26	0	slot2	616	616	2	1	2	89	24	89	70	40	2145	88	1	2	57	88	67	40	55.6603474088593870306	89.4794067083525135331	63.8714360050379568179	38.2442237483753189053
5.0.14.0	win	042919	13:55:28	007	1	game	3	iti	104	1	26	26	0	0	2000	616	2	1	2	88	24	88	70	40	2145	88	1	2	57	88	67	40	55.6603474088593870306	89.4794067083525135331	63.8714360050379568179	38.2442237483753189053
5.0.14.0	win	042919	13:55:28	007	1	game	3	selection	105	1	27	27	0	slot2	242	242	2	1	2	88	24	88	70	40	2230	85	1	2	56	85	61	41	52.1662130274039697042	87.0172460550910074062	60.8247430717211514661	38.3623461734161281811
5.0.14.0	win	042919	13:55:28	007	1	game	3	iti	108	1	27	27	0	0	2000	242	2	1	2	85	24	85	70	40	2230	85	1	2	56	85	61	41	52.1662130274039697042	87.0172460550910074062	60.8247430717211514661	38.3623461734161281811
5.0.14.0	win	042919	13:55:28	007	1	game	3	selection	109	1	28	28	0	slot2	364	364	2	1	2	85	24	85	70	40	2317	87	1	2	54	87	65	44	56.9496009201891695284	87.8857991154725368688	60.5203808356449215466	42.0639834090111932596
5.0.14.0	win	042919	13:55:28	007	1	game	3	iti	112	1	28	28	0	0	2000	364	2	1	2	87	24	87	70	40	2317	87	1	2	54	87	65	44	56.9496009201891695284	87.8857991154725368688	60.5203808356449215466	42.0639834090111932596
5.0.14.0	win	042919	13:55:28	007	1	game	3	selection	113	1	29	29	0	slot2	361	361	2	1	2	87	24	87	70	40	2404	87	1	2	58	87	57	41	57.4276781627973988975	87.9173728008274650847	59.023894214655662438	45.3188945032227792353
5.0.14.0	win	042919	13:55:28	007	1	game	3	iti	116	1	29	29	0	0	2000	361	2	1	2	87	24	87	70	40	2404	87	1	2	58	87	57	41	57.4276781627973988975	87.9173728008274650847	59.023894214655662438	45.3188945032227792353
5.0.14.0	win	042919	13:55:28	007	1	game	3	selection	117	1	30	30	0	slot2	350	350	2	1	2	87	24	87	70	40	2493	89	1	2	57	89	52	42	53.8615965139520369576	89.9128013775425216636	57.8631472752806956805	40.6368345743802663605
5.0.14.0	win	042919	13:55:28	007	1	game	3	iti	120	1	30	30	0	0	2000	350	2	1	2	89	24	89	70	40	2493	89	1	2	57	89	52	42	53.8615965139520369576	89.9128013775425216636	57.8631472752806956805	40.6368345743802663605
5.0.14.0	win	042919	13:55:28	007	1	game	3	selection	121	1	31	31	0	slot2	325	325	2	1	2	89	24	89	70	40	2586	93	1	2	62	93	57	38	57.1482914442941591915	91.4223365600463893088	60.0319776209566100533	40.3744460858538189996
5.0.14.0	win	042919	13:55:28	007	1	game	3	iti	124	1	31	31	0	0	2000	325	2	1	2	93	24	93	70	40	2586	93	1	2	62	93	57	38	57.1482914442941591915	91.4223365600463893088	60.0319776209566100533	40.3744460858538189996
5.0.14.0	win	042919	13:55:28	007	1	game	3	selection	125	1	32	32	0	slot2	913	913	2	1	2	93	24	93	70	40	2684	98	1	2	56	98	59	39	60.1707792241609809025	92.2716406048681676566	61.2661061793218308935	42.8340843076087622876
5.0.14.0	win	042919	13:55:28	007	1	game	3	iti	128	1	32	32	0	0	2000	913	2	1	2	98	24	98	70	40	2684	98	1	2	56	98	59	39	60.1707792241609809025	92.2716406048681676566	61.2661061793218308935	42.8340843076087622876
5.0.14.0	win	042919	13:55:28	007	1	game	3	selection	129	1	33	33	0	slot2	325	325	2	1	2	98	24	98	70	40	2777	93	1	2	63	93	61	42	61.5618987524952245849	89.5328929767612606838	58.4258314795130360153	43.3547831677720338917
5.0.14.0	win	042919	13:55:28	007	1	game	3	iti	132	1	33	33	0	0	2000	325	2	1	2	93	24	93	70	40	2777	93	1	2	63	93	61	42	61.5618987524952245849	89.5328929767612606838	58.4258314795130360153	43.3547831677720338917
5.0.14.0	win	042919	13:55:28	007	1	game	3	selection	133	1	34	34	0	slot2	333	333	2	1	2	93	24	93	70	40	2867	90	1	2	56	90	59	50	57.8924955955844069422	89.245234065009015012	61.6713001263523850071	48.2843317405069143433
5.0.14.0	win	042919	13:55:28	007	1	game	3	iti	136	1	34	34	0	0	2000	333	2	1	2	90	24	90	70	40	2867	90	1	2	56	90	59	50	57.8924955955844069422	89.245234065009015012	61.6713001263523850071	48.2843317405069143433
5.0.14.0	win	042919	13:55:28	007	1	game	3	selection	137	1	35	35	0	slot2	378	378	2	1	2	90	24	90	70	40	2959	92	1	2	59	92	58	44	60.2883531785781130452	93.3160368554544845665	60.0606940424844495396	49.4027918140677400061
5.0.14.0	win	042919	13:55:28	007	1	game	3	iti	140	1	35	35	0	0	2000	378	2	1	2	92	24	92	70	40	2959	92	1	2	59	92	58	44	60.2883531785781130452	93.3160368554544845665	60.0606940424844495396	49.4027918140677400061
5.0.14.0	win	042919	13:55:28	007	1	game	3	selection	141	1	36	36	0	slot2	251	251	2	1	2	92	24	92	70	40	3049	90	1	2	50	90	58	45	59.6778091606716500905	93.8625646824441730587	53.8972885428231904825	49.836778058631708177
5.0.14.0	win	042919	13:55:28	007	1	game	3	iti	144	1	36	36	0	0	2000	251	2	1	2	90	24	90	70	40	3049	90	1	2	50	90	58	45	59.6778091606716500905	93.8625646824441730587	53.8972885428231904825	49.836778058631708177
5.0.14.0	win	042919	13:55:28	007	1	game	3	selection	145	1	37	37	0	slot2	411	411	2	1	2	90	24	90	70	40	3139	90	1	2	57	90	56	47	56.0048075149416817453	87.8091155605740709689	55.9488213570796517615	46.5102270830771331589
5.0.14.0	win	042919	13:55:28	007	1	game	3	iti	148	1	37	37	0	0	2000	411	2	1	2	90	24	90	70	40	3139	90	1	2	57	90	56	47	56.0048075149416817453	87.8091155605740709689	55.9488213570796517615	46.5102270830771331589
5.0.14.0	win	042919	13:55:28	007	1	game	3	selection	149	1	38	38	0	slot2	820	820	2	1	2	90	24	90	70	40	3220	81	1	2	52	81	54	44	52.2651868108078545561	81.8608772691504071872	56.7160457052931548105	44.489468408138556299
5.0.14.0	win	042919	13:55:28	007	1	game	3	iti	152	1	38	38	0	0	2000	820	2	1	2	81	24	81	70	40	3220	81	1	2	52	81	54	44	52.2651868108078545561	81.8608772691504071872	56.7160457052931548105	44.489468408138556299
5.0.14.0	win	042919	13:55:28	007	1	game	3	selection	153	1	39	39	0	slot2	352	352	2	1	2	81	24	81	70	40	3300	80	1	2	57	80	68	51	52.3307047271487135731	79.3851156721996034094	57.8657006733517960129	46.3490036384739170217
5.0.14.0	win	042919	13:55:28	007	1	game	3	iti	156	1	39	39	0	0	2000	352	2	1	2	80	24	80	70	40	3300	80	1	2	57	80	68	51	52.3307047271487135731	79.3851156721996034094	57.8657006733517960129	46.3490036384739170217
5.0.14.0	win	042919	13:55:28	007	1	game	3	selection	157	1	40	40	0	slot2	320	320	2	1	2	80	24	80	70	40	3384	84	1	2	56	84	51	40	56.2898048441448253243	79.2960887722173737302	60.7007692932688556198	44.7249438708042390545
5.0.14.0	win	042919	13:55:28	007	1	game	3	iti	160	1	40	40	0	0	2000	320	2	1	2	84	24	84	70	40	3384	84	1	2	56	84	51	40	56.2898048441448253243	79.2960887722173737302	60.7007692932688556198	44.7249438708042390545
5.0.14.0	win	042919	13:55:28	007	1	game	3	selection	161	1	41	41	0	slot2	435	435	2	1	2	84	24	84	70	40	3458	74	1	2	58	74	59	49	57.5670549509457174508	73.4630033188195454841	58.2956886917796168746	45.1370629289480689295
5.0.14.0	win	042919	13:55:28	007	1	game	3	iti	164	1	41	41	0	0	2000	435	2	1	2	74	24	74	70	40	3458	74	1	2	58	74	59	49	57.5670549509457174508	73.4630033188195454841	58.2956886917796168746	45.1370629289480689295
5.0.14.0	win	042919	13:55:28	007	1	game	3	selection	165	1	42	42	0	slot2	254	254	2	1	2	74	24	74	70	40	3530	72	1	2	57	72	68	46	56.1086148850309101022	70.2166110149823907705	61.2772752897848604903	45.2811535899086479162
5.0.14.0	win	042919	13:55:28	007	1	game	3	iti	168	1	42	42	0	0	2000	254	2	1	2	72	24	72	70	40	3530	72	1	2	57	72	68	46	56.1086148850309101022	70.2166110149823907705	61.2772752897848604903	45.2811535899086479162
5.0.14.0	win	042919	13:55:28	007	1	game	3	selection	169	1	43	43	0	slot2	253	253	2	1	2	72	24	72	70	40	3600	70	1	2	55	70	66	47	54.5653133850613372147	66.2884855282471221471	60.5300550106988808352	45.3574928107457040483
5.0.14.0	win	042919	13:55:28	007	1	game	3	iti	172	1	43	43	0	0	2000	253	2	1	2	70	24	70	70	40	3600	70	1	2	55	70	66	47	54.5653133850613372147	66.2884855282471221471	60.5300550106988808352	45.3574928107457040483
5.0.14.0	win	042919	13:55:28	007	1	game	3	selection	173	1	44	44	0	slot2	603	603	2	1	2	70	24	70	70	40	3661	61	1	2	54	61	59	45	53.0579371958425838329	63.1508608933093356086	60.8551234559102525168	48.4592583885875285432
5.0.14.0	win	042919	13:55:28	007	1	game	3	iti	176	1	44	44	0	0	2000	603	2	1	3	70	24	61	70	40	3661	61	1	2	54	61	59	45	53.0579371958425838329	63.1508608933093356086	60.8551234559102525168	48.4592583885875285432
5.0.14.0	win	042919	13:55:28	007	1	game	3	selection	177	1	45	45	0	slot2	323	323	2	2	3	70	24	61	70	40	3711	50	2	3	49	50	67	54	46.4874962554559800765	59.2574268526302887494	57.9329981065651082872	43.614151551750779845
5.0.14.0	win	042919	13:55:28	007	1	game	3	iti	180	1	45	45	0	0	2000	323	2	2	3	70	24	50	70	40	3711	50	2	3	49	50	67	54	46.4874962554559800765	59.2574268526302887494	57.9329981065651082872	43.614151551750779845
5.0.14.0	win	042919	13:55:28	007	1	game	3	selection	181	1	46	46	0	slot3	341	341	3	1	3	70	24	50	70	40	3761	50	2	2	48	55	50	46	51.5387321838427894249	61.3963608044490669613	55.6695831194736712177	44.2836816359561424861
5.0.14.0	win	042919	13:55:28	007	1	game	3	iti	184	1	46	46	0	0	2000	341	3	1	2	50	24	50	50	40	3761	50	2	2	48	55	50	46	51.5387321838427894249	61.3963608044490669613	55.6695831194736712177	44.2836816359561424861
5.0.14.0	win	042919	13:55:28	007	1	game	3	selection	185	1	47	47	0	slot3	322	322	3	2	2	50	24	50	50	40	3811	50	2	2	46	63	50	49	47.3513801568547592069	62.884405709493243819	54.1079702851768544747	44.7078295883971605917
5.0.14.0	win	042919	13:55:28	007	1	game	3	iti	188	1	47	47	0	0	2000	322	3	2	2	50	24	50	50	40	3811	50	2	2	46	63	50	49	47.3513801568547592069	62.884405709493243819	54.1079702851768544747	44.7078295883971605917
5.0.14.0	win	042919	13:55:28	007	1	game	3	selection	189	1	48	48	0	slot1	330	330	1	2	2	50	24	50	50	40	3856	45	2	2	45	67	43	47	44.4318644241856048893	65.9062704061046105153	50.9807617636068641787	47.7815137073873685836
5.0.14.0	win	042919	13:55:28	007	1	game	3	iti	192	1	48	48	0	0	2000	330	1	2	2	50	45	50	50	40	3856	45	2	2	45	67	43	47	44.4318644241856048893	65.9062704061046105153	50.9807617636068641787	47.7815137073873685836
5.0.14.0	win	042919	13:55:28	007	1	game	3	selection	193	1	49	49	0	slot4	281	281	4	2	2	50	45	50	50	40	3895	39	2	3	48	58	62	39	44.6723660555537094297	61.213498513219924746	54.5307325168843135543	45.860022284701898343
5.0.14.0	win	042919	13:55:28	007	1	game	3	iti	196	1	49	49	0	0	2000	281	4	2	2	50	45	50	50	39	3895	39	2	3	48	58	62	39	44.6723660555537094297	61.213498513219924746	54.5307325168843135543	45.860022284701898343
5.0.14.0	win	042919	13:55:28	007	1	game	3	selection	197	1	50	50	0	slot3	319	319	3	2	2	50	45	50	50	39	3947	52	2	2	50	59	52	43	44.798624333667127928	56.9385772805384249295	53.7935155532943767298	45.5279932913260552141
5.0.14.0	win	042919	13:55:28	007	1	game	3	iti	200	1	50	50	0	0	2000	319	3	2	3	52	45	50	52	39	3947	52	2	2	50	59	52	43	44.798624333667127928	56.9385772805384249295	53.7935155532943767298	45.5279932913260552141
5.0.14.0	win	042919	13:55:28	007	1	game	3	selection	201	1	51	51	0	slot2	373	373	2	2	3	52	45	50	52	39	3997	50	2	4	40	50	49	57	40.7735130573207982252	52.1905321609336141364	51.4610016702877004491	47.8686721508680577131
5.0.14.0	win	042919	13:55:28	007	1	game	3	iti	204	1	51	51	0	0	2000	373	2	2	3	52	45	50	52	39	3997	50	2	4	40	50	49	57	40.7735130573207982252	52.1905321609336141364	51.4610016702877004491	47.8686721508680577131
5.0.14.0	win	042919	13:55:28	007	1	game	3	selection	205	1	52	52	0	slot3	325	325	3	1	3	52	45	50	52	39	4047	50	1	3	40	47	50	44	39.2886207238112064033	55.7787992302528650157	49.7716963973826693746	40.8841865577386371911
5.0.14.0	win	042919	13:55:28	007	1	game	3	iti	208	1	52	52	0	0	2000	325	3	1	2	50	45	50	50	39	4047	50	1	3	40	47	50	44	39.2886207238112064033	55.7787992302528650157	49.7716963973826693746	40.8841865577386371911
5.0.14.0	win	042919	13:55:28	007	1	game	3	selection	209	1	53	53	0	slot3	323	323	3	2	2	50	45	50	50	39	4099	52	2	2	42	60	52	47	43.0400275781965007127	54.4809387846926753696	50.995529185280595641	46.2635547917128207018
5.0.14.0	win	042919	13:55:28	007	1	game	3	iti	212	1	53	53	0	0	2000	323	3	2	3	52	45	50	52	39	4099	52	2	2	42	60	52	47	43.0400275781965007127	54.4809387846926753696	50.995529185280595641	46.2635547917128207018
5.0.14.0	win	042919	13:55:28	007	1	game	3	selection	213	1	54	54	0	slot3	213	213	3	1	3	52	45	50	52	39	4144	45	2	2	48	54	45	50	48.9117250506581697778	57.7466415486882809205	47.6565865851636729644	46.8769482427800454616
5.0.14.0	win	042919	13:55:28	007	1	game	3	iti	216	1	54	54	0	0	2000	213	3	1	2	50	45	50	45	39	4144	45	2	2	48	54	45	50	48.9117250506581697778	57.7466415486882809205	47.6565865851636729644	46.8769482427800454616
5.0.14.0	win	042919	13:55:28	007	1	game	3	selection	217	1	55	55	0	slot3	251	251	3	2	2	50	45	50	45	39	4192	48	2	2	43	52	48	51	46.9794152837978060688	54.1753341946694746412	41.8117839655855547676	48.2612755565019853066
5.0.14.0	win	042919	13:55:28	007	1	game	3	iti	220	1	55	55	0	0	2000	251	3	2	2	50	45	50	48	39	4192	48	2	2	43	52	48	51	46.9794152837978060688	54.1753341946694746412	41.8117839655855547676	48.2612755565019853066
5.0.14.0	win	042919	13:55:28	007	1	game	3	selection	221	1	56	56	0	slot2	462	462	2	1	2	50	45	50	48	39	4249	57	1	2	39	57	44	48	41.4323184181659485148	54.7484391467494404537	45.3064569602433095952	46.8066923812825947948
5.0.14.0	win	042919	13:55:28	007	1	game	3	iti	224	1	56	56	0	0	2000	462	2	1	2	57	45	57	48	39	4249	57	1	2	39	57	44	48	41.4323184181659485148	54.7484391467494404537	45.3064569602433095952	46.8066923812825947948
5.0.14.0	win	042919	13:55:28	007	1	game	3	selection	225	1	57	57	0	slot3	704	704	3	2	2	57	45	57	48	39	4295	46	2	2	45	51	46	43	40.7162863133251988756	55.3368691828663372689	46.0457912966135580746	45.6514060330606668003
5.0.14.0	win	042919	13:55:28	007	1	game	3	iti	228	1	57	57	0	0	2000	704	3	2	2	57	45	57	46	39	4295	46	2	2	45	51	46	43	40.7162863133251988756	55.3368691828663372689	46.0457912966135580746	45.6514060330606668003
5.0.14.0	win	042919	13:55:28	007	1	game	3	selection	229	1	58	58	0	slot2	715	715	2	1	2	57	45	57	46	39	4353	58	1	2	46	58	43	47	42.7695521708482857548	54.2845200194546251282	43.1005546813603075407	45.7144320323880393175
5.0.14.0	win	042919	13:55:28	007	1	game	3	iti	232	1	58	58	0	0	2000	715	2	1	2	58	45	58	46	39	4353	58	1	2	46	58	43	47	42.7695521708482857548	54.2845200194546251282	43.1005546813603075407	45.7144320323880393175
5.0.14.0	win	042919	13:55:28	007	1	game	3	selection	233	1	59	59	0	slot2	702	702	2	1	2	58	45	58	46	39	4408	55	1	2	39	55	41	44	40.6893542751139349889	58.5612242465634409427	43.0203465957924180429	44.966548608484870897
5.0.14.0	win	042919	13:55:28	007	1	game	3	iti	236	1	59	59	0	0	2000	702	2	1	2	55	45	55	46	39	4408	55	1	2	39	55	41	44	40.6893542751139349889	58.5612242465634409427	43.0203465957924180429	44.966548608484870897
5.0.14.0	win	042919	13:55:28	007	1	game	3	selection	237	1	60	60	0	slot2	447	447	2	1	2	55	45	55	46	39	4464	56	1	2	46	56	49	47	46.1754171873756291689	60.9707775442168582458	46.3764171714740172092	48.4338628292558652788
5.0.14.0	win	042919	13:55:28	007	1	game	3	iti	240	1	60	60	0	0	2000	447	2	1	2	56	45	56	46	39	4464	56	1	2	46	56	49	47	46.1754171873756291689	60.9707775442168582458	46.3764171714740172092	48.4338628292558652788
5.0.14.0	win	042919	13:55:28	007	1	game	3	selection	241	1	61	61	0	slot3	322	322	3	2	2	56	45	56	46	39	4505	41	2	2	54	60	41	49	50.0076505253665430928	59.9456959217458802414	47.2926496521632415693	45.7954547739478812218
5.0.14.0	win	042919	13:55:28	007	1	game	3	iti	244	1	61	61	0	0	2000	322	3	2	2	56	45	56	41	39	4505	41	2	2	54	60	41	49	50.0076505253665430928	59.9456959217458802414	47.2926496521632415693	45.7954547739478812218
5.0.14.0	win	042919	13:55:28	007	1	game	3	selection	245	1	62	62	0	slot2	360	360	2	1	2	56	45	56	41	39	4570	65	1	2	45	65	49	46	47.8532801031683305837	62.4340908359347608325	45.4299427604022838523	47.9850052793667174456
5.0.14.0	win	042919	13:55:28	007	1	game	3	iti	248	1	62	62	0	0	2000	360	2	1	2	65	45	65	41	39	4570	65	1	2	45	65	49	46	47.8532801031683305837	62.4340908359347608325	45.4299427604022838523	47.9850052793667174456
5.0.14.0	win	042919	13:55:28	007	1	game	3	selection	249	1	63	63	0	slot2	500	500	2	1	2	65	45	65	41	39	4630	60	1	2	52	60	46	45	49.3489273368160894506	62.1892557483931867068	44.5539848063003276479	50.7050264480833021707
5.0.14.0	win	042919	13:55:28	007	1	game	3	iti	252	1	63	63	0	0	2000	500	2	1	2	60	45	60	41	39	4630	60	1	2	52	60	46	45	49.3489273368160894506	62.1892557483931867068	44.5539848063003276479	50.7050264480833021707
5.0.14.0	win	042919	13:55:28	007	1	game	3	selection	253	1	64	64	0	slot2	639	639	2	1	2	60	45	60	41	39	4693	63	1	2	46	63	43	53	48.2519586312645571979	59.5235707669181834945	46.4379472399870607546	53.2181606510603018023
5.0.14.0	win	042919	13:55:28	007	1	game	3	iti	256	1	64	64	0	0	2000	639	2	1	2	63	45	63	41	39	4693	63	1	2	46	63	43	53	48.2519586312645571979	59.5235707669181834945	46.4379472399870607546	53.2181606510603018023
5.0.14.0	win	042919	13:55:28	007	1	game	3	selection	257	1	65	65	0	slot2	949	949	2	1	2	63	45	63	41	39	4748	55	1	2	42	55	44	45	44.2249159087084464659	57.0851819369693487261	46.2965291347182414938	51.4655603247255371002
5.0.14.0	win	042919	13:55:28	007	1	game	3	iti	260	1	65	65	0	0	2000	949	2	1	2	55	45	55	41	39	4748	55	1	2	42	55	44	45	44.2249159087084464659	57.0851819369693487261	46.2965291347182414938	51.4655603247255371002
5.0.14.0	win	042919	13:55:28	007	1	game	3	selection	261	1	66	66	0	slot2	249	249	2	1	2	55	45	55	41	39	4810	62	1	2	45	62	47	52	52.0565168343417781216	62.0331570037223087866	50.1357055975053995667	50.4499414350445221089
5.0.14.0	win	042919	13:55:28	007	1	game	3	iti	264	1	66	66	0	0	2000	249	2	1	2	62	45	62	41	39	4810	62	1	2	45	62	47	52	52.0565168343417781216	62.0331570037223087866	50.1357055975053995667	50.4499414350445221089
5.0.14.0	win	042919	13:55:28	007	1	game	3	selection	265	1	67	67	1	0	1500	1500	0	0	2	62	45	62	41	39	4810	0	0	2	54	63	49	41	51.1086343864321719366	58.9669095767007718223	46.8126495356764777966	51.7409743501093544182
5.0.14.0	win	042919	13:55:28	007	1	game	3	iti	267	1	67	67	1	0	2000	1500	0	0	2	62	45	62	41	39	4810	0	0	2	54	63	49	41	51.1086343864321719366	58.9669095767007718223	46.8126495356764777966	51.7409743501093544182
5.0.14.0	win	042919	13:55:28	007	1	game	3	selection	268	1	68	68	1	slot2	275	275	2	1	2	62	45	62	41	39	4870	60	2	4	54	60	47	64	56.1919268943714840248	59.9982990745949464895	49.4338378335732500091	53.6505200991510236008
5.0.14.0	win	042919	13:55:28	007	1	game	3	iti	271	1	68	68	1	0	2000	275	2	1	2	60	45	60	41	39	4870	60	2	4	54	60	47	64	56.1919268943714840248	59.9982990745949464895	49.4338378335732500091	53.6505200991510236008
5.0.14.0	win	042919	13:55:28	007	1	game	3	selection	272	1	69	69	1	slot3	455	455	3	2	2	60	45	60	41	39	4918	48	2	1	61	60	48	55	56.3513357306633366761	60.5864611109901787245	46.4933682593772061864	53.0678227855636137633
5.0.14.0	win	042919	13:55:28	007	1	game	3	iti	275	1	69	69	1	0	2000	455	3	2	2	60	45	60	48	39	4918	48	2	1	61	60	48	55	56.3513357306633366761	60.5864611109901787245	46.4933682593772061864	53.0678227855636137633
5.0.14.0	win	042919	13:55:28	007	1	game	3	selection	276	1	70	70	1	slot2	269	269	2	1	2	60	45	60	48	39	4979	61	1	2	58	61	53	52	57.2005690599681315689	60.8138629797727503501	48.4505616197726638461	48.1594168048758319856
5.0.14.0	win	042919	13:55:28	007	1	game	3	iti	279	1	70	70	1	0	2000	269	2	1	2	61	45	61	48	39	4979	61	1	2	58	61	53	52	57.2005690599681315689	60.8138629797727503501	48.4505616197726638461	48.1594168048758319856
5.0.14.0	win	042919	13:55:28	007	1	game	3	selection	280	1	71	71	1	slot2	770	770	2	1	2	61	45	61	48	39	5034	55	1	2	48	55	43	47	56.4625284169182961591	60.5212074061106122258	48.0947996117767786473	50.5667969263177496941
5.0.14.0	win	042919	13:55:28	007	1	game	3	iti	283	1	71	71	1	0	2000	770	2	1	2	55	45	55	48	39	5034	55	1	2	48	55	43	47	56.4625284169182961591	60.5212074061106122258	48.0947996117767786473	50.5667969263177496941
5.0.14.0	win	042919	13:55:28	007	1	game	3	selection	284	1	72	72	1	slot2	601	601	2	1	2	55	45	55	48	39	5112	78	1	2	62	78	50	52	57.9887831992826576766	65.3114896135089821883	47.8866469895352793174	51.8983577965782458818
5.0.14.0	win	042919	13:55:28	007	1	game	3	iti	287	1	72	72	1	0	2000	601	2	1	2	78	45	78	48	39	5112	78	1	2	62	78	50	52	57.9887831992826576766	65.3114896135089821883	47.8866469895352793174	51.8983577965782458818
5.0.14.0	win	042919	13:55:28	007	1	game	3	selection	288	1	73	73	1	slot2	969	969	2	1	2	78	45	78	48	39	5179	67	1	2	59	67	47	54	59.4424230205761219281	67.967847461566691436	46.705663780432836063	51.5507676592530330595
5.0.14.0	win	042919	13:55:28	007	1	game	3	iti	291	1	73	73	1	0	2000	969	2	1	2	67	45	67	48	39	5179	67	1	2	59	67	47	54	59.4424230205761219281	67.967847461566691436	46.705663780432836063	51.5507676592530330595
5.0.14.0	win	042919	13:55:28	007	1	game	3	selection	292	1	74	74	1	slot2	721	721	2	1	2	67	45	67	48	39	5239	60	1	2	57	60	43	59	58.4006595049818884036	66.6450622482750247855	45.7018764113531545945	53.3648289950690113415
5.0.14.0	win	042919	13:55:28	007	1	game	3	iti	295	1	74	74	1	0	2000	721	2	1	2	60	45	60	48	39	5239	60	1	2	57	60	43	59	58.4006595049818884036	66.6450622482750247855	45.7018764113531545945	53.3648289950690113415
5.0.14.0	win	042919	13:55:28	007	1	game	3	selection	296	1	75	75	1	slot2	466	466	2	1	2	60	45	60	48	39	5309	70	1	2	60	70	53	57	58.2979240726230045766	63.876954439895875737	47.7306323169566510956	53.1450745963944441996
5.0.14.0	win	042919	13:55:28	007	1	game	3	iti	299	1	75	75	1	0	2000	466	2	1	2	70	45	70	48	39	5309	70	1	2	60	70	53	57	58.2979240726230045766	63.876954439895875737	47.7306323169566510956	53.1450745963944441996
5.0.14.0	win	042919	13:55:28	007	1	game	3	selection	300	1	76	76	1	slot2	781	781	2	1	2	70	45	70	48	39	5378	69	1	2	59	69	47	54	56.0221180417357444981	65.4277564869422434413	45.44095071303085831	53.8474030217505230667
5.0.14.0	win	042919	13:55:28	007	1	game	3	iti	303	1	76	76	1	0	2000	781	2	1	2	69	45	69	48	39	5378	69	1	2	59	69	47	54	56.0221180417357444981	65.4277564869422434413	45.44095071303085831	53.8474030217505230667
5.0.14.0	win	042919	13:55:28	007	1	game	3	selection	304	1	77	77	1	slot2	884	884	2	1	2	69	45	69	48	39	5442	64	1	2	51	64	50	63	51.9144311903829844823	66.4260969161711756215	44.7893339592858552578	54.3275242543818990271
5.0.14.0	win	042919	13:55:28	007	1	game	3	iti	307	1	77	77	1	0	2000	884	2	1	2	64	45	64	48	39	5442	64	1	2	51	64	50	63	51.9144311903829844823	66.4260969161711756215	44.7893339592858552578	54.3275242543818990271
5.0.14.0	win	042919	13:55:28	007	1	game	3	selection	308	1	78	78	1	slot2	951	951	2	1	2	64	45	64	48	39	5508	66	1	2	48	66	46	61	50.2727996930622964555	69.3759209320279808253	43.746874234871363285	52.518463854388031109
5.0.14.0	win	042919	13:55:28	007	1	game	3	iti	311	1	78	78	1	0	2000	951	2	1	2	66	45	66	48	39	5508	66	1	2	48	66	46	61	50.2727996930622964555	69.3759209320279808253	43.746874234871363285	52.518463854388031109
5.0.14.0	win	042919	13:55:28	007	1	game	3	selection	312	1	79	79	1	slot3	730	730	3	2	2	66	45	66	48	39	5550	42	2	2	43	69	42	56	47.9982001208138910897	71.9792291154422656518	44.3117305017373652731	54.3432737356830273256
5.0.14.0	win	042919	13:55:28	007	1	game	3	iti	315	1	79	79	1	0	2000	730	3	2	2	66	45	66	42	39	5550	42	2	2	43	69	42	56	47.9982001208138910897	71.9792291154422656518	44.3117305017373652731	54.3432737356830273256
5.0.14.0	win	042919	13:55:28	007	1	game	3	selection	316	1	80	80	1	slot4	311	311	4	2	2	66	45	66	42	39	5609	59	2	2	62	72	48	59	56.8799907346633872862	76.4298703450916008251	40.373651007532039614	56.8251080936546628664
5.0.14.0	win	042919	13:55:28	007	1	game	3	iti	319	1	80	80	1	0	2000	311	4	2	2	66	45	66	42	59	5609	59	2	2	62	72	48	59	56.8799907346633872862	76.4298703450916008251	40.373651007532039614	56.8251080936546628664
5.0.14.0	win	042919	13:55:28	007	1	game	3	selection	320	1	81	81	1	slot1	284	284	1	2	2	66	45	66	42	59	5666	57	2	2	57	72	44	55	59.378417039098088992	71.4178989186726198568	44.8399686049740395788	54.1384583675030484073
5.0.14.0	win	042919	13:55:28	007	1	game	3	iti	323	1	81	81	1	0	2000	284	1	2	2	66	57	66	42	59	5666	57	2	2	57	72	44	55	59.378417039098088992	71.4178989186726198568	44.8399686049740395788	54.1384583675030484073
5.0.14.0	win	042919	13:55:28	007	1	game	3	selection	324	1	82	82	1	slot2	994	994	2	1	2	66	57	66	42	59	5746	80	1	2	68	80	45	56	61.5699167265915221492	73.6169804764302853073	44.4044577790429499942	55.4590898851713163253
5.0.14.0	win	042919	13:55:28	007	1	game	3	iti	327	1	82	82	1	0	2000	994	2	1	2	80	57	80	42	59	5746	80	1	2	68	80	45	56	61.5699167265915221492	73.6169804764302853073	44.4044577790429499942	55.4590898851713163253
5.0.14.0	win	042919	13:55:28	007	1	game	3	selection	328	1	83	83	1	slot2	713	713	2	1	2	80	57	80	42	59	5819	73	1	2	60	73	43	59	61.5163684247110182923	75.2025391944502672459	45.5769148994792203666	56.1463472331366020285
5.0.14.0	win	042919	13:55:28	007	1	game	3	iti	331	1	83	83	1	0	2000	713	2	1	2	73	57	73	42	59	5819	73	1	2	60	73	43	59	61.5163684247110182923	75.2025391944502672459	45.5769148994792203666	56.1463472331366020285
5.0.14.0	win	042919	13:55:28	007	1	game	3	selection	332	1	84	84	1	slot2	482	482	2	1	2	73	57	73	42	59	5894	75	1	2	64	75	39	57	60.7154062133314837979	74.4726247686684814653	41.508834283696245393	57.5224612958066714441
5.0.14.0	win	042919	13:55:28	007	1	game	3	iti	335	1	84	84	1	0	2000	482	2	1	2	75	57	75	42	59	5894	75	1	2	64	75	39	57	60.7154062133314837979	74.4726247686684814653	41.508834283696245393	57.5224612958066714441
5.0.14.0	win	042919	13:55:28	007	1	game	3	selection	336	1	85	85	1	slot2	568	568	2	1	2	75	57	75	42	59	5970	76	1	2	49	76	39	64	57.164587641781004379	74.5575387355051475424	38.3831967400514244559	60.2588043443116134767
5.0.14.0	win	042919	13:55:28	007	1	game	3	iti	339	1	85	85	1	0	2000	568	2	1	2	76	57	76	42	59	5970	76	1	2	49	76	39	64	57.164587641781004379	74.5575387355051475424	38.3831967400514244559	60.2588043443116134767
5.0.14.0	win	042919	13:55:28	007	1	game	3	selection	340	1	86	86	1	slot2	577	577	2	1	2	76	57	76	42	59	6055	85	1	2	56	85	36	49	56.6526729239208179933	80.10438624723194323	38.038616761389249632	56.4244262477774611853
5.0.14.0	win	042919	13:55:28	007	1	game	3	iti	343	1	86	86	1	0	2000	577	2	1	2	85	57	85	42	59	6055	85	1	2	56	85	36	49	56.6526729239208179933	80.10438624723194323	38.038616761389249632	56.4244262477774611853
5.0.14.0	win	042919	13:55:28	007	1	game	3	selection	344	1	87	87	1	slot2	708	708	2	1	2	85	57	85	42	59	6143	88	1	2	56	88	44	62	54.5776949018721353468	82.8845440760332508034	39.4330776280010155688	57.4990438676910287086
5.0.14.0	win	042919	13:55:28	007	1	game	3	iti	347	1	87	87	1	0	2000	708	2	1	2	88	57	88	42	59	6143	88	1	2	56	88	44	62	54.5776949018721353468	82.8845440760332508034	39.4330776280010155688	57.4990438676910287086
5.0.14.0	win	042919	13:55:28	007	1	game	3	selection	348	1	88	88	2	0	1500	1500	0	0	2	88	57	88	42	59	6143	0	0	2	53	82	39	60	52.5985595551469273801	82.1914093278699482426	42.1566168626765858107	55.5345516463039317046
5.0.14.0	win	042919	13:55:28	007	1	game	3	iti	350	1	88	88	2	0	2000	1500	0	0	2	88	57	88	42	59	6143	0	0	2	53	82	39	60	52.5985595551469273801	82.1914093278699482426	42.1566168626765858107	55.5345516463039317046
5.0.14.0	win	042919	13:55:28	007	1	game	3	selection	351	1	89	89	2	slot2	318	318	2	1	2	88	57	88	42	59	6225	82	1	2	48	82	43	62	52.3786051654495494745	83.1864286583529946029	42.8124632257840218585	54.4545258041108866109
5.0.14.0	win	042919	13:55:28	007	1	game	3	iti	354	1	89	89	2	0	2000	318	2	1	2	82	57	82	42	59	6225	82	1	2	48	82	43	62	52.3786051654495494745	83.1864286583529946029	42.8124632257840218585	54.4545258041108866109
5.0.14.0	win	042919	13:55:28	007	1	game	3	selection	355	1	90	90	2	slot2	708	708	2	1	2	82	57	82	42	59	6301	76	1	2	49	76	48	51	55.4992158354398910092	79.6530543376811834833	43.9523760795559113035	51.8234769219762654302
5.0.14.0	win	042919	13:55:28	007	1	game	3	iti	358	1	90	90	2	0	2000	708	2	1	2	76	57	76	42	59	6301	76	1	2	49	76	48	51	55.4992158354398910092	79.6530543376811834833	43.9523760795559113035	51.8234769219762654302
5.0.14.0	win	042919	13:55:28	007	1	game	3	selection	359	1	91	91	2	slot2	615	615	2	1	2	76	57	76	42	59	6372	71	1	2	59	71	36	47	55.7799413696327519574	73.8268950757218078707	42.5288665291698464443	50.4338942665190543835
5.0.14.0	win	042919	13:55:28	007	1	game	3	iti	362	1	91	91	2	0	2000	615	2	1	2	71	57	71	42	59	6372	71	1	2	59	71	36	47	55.7799413696327519574	73.8268950757218078707	42.5288665291698464443	50.4338942665190543835
5.0.14.0	win	042919	13:55:28	007	1	game	3	selection	363	1	92	92	2	slot2	1029	1029	2	1	2	71	57	71	42	59	6441	69	1	2	51	69	44	52	54.8264820684523215277	73.4782915822105024972	44.4508019761859785035	50.5214722382688563584
5.0.14.0	win	042919	13:55:28	007	1	game	3	iti	366	1	92	92	2	0	2000	1029	2	1	2	69	57	69	42	59	6441	69	1	2	51	69	44	52	54.8264820684523215277	73.4782915822105024972	44.4508019761859785035	50.5214722382688563584
5.0.14.0	win	042919	13:55:28	007	1	game	3	selection	367	1	93	93	2	slot2	871	871	2	1	2	69	57	69	42	59	6519	78	1	2	54	78	47	58	54.0245598548749015322	76.3984910429544186172	45.0154810144072854428	55.0798950555168715937
5.0.14.0	win	042919	13:55:28	007	1	game	3	iti	370	1	93	93	2	0	2000	871	2	1	2	78	57	78	42	59	6519	78	1	2	54	78	47	58	54.0245598548749015322	76.3984910429544186172	45.0154810144072854428	55.0798950555168715937
5.0.14.0	win	042919	13:55:28	007	1	game	3	selection	371	1	94	94	2	slot2	545	545	2	1	2	78	57	78	42	59	6588	69	1	2	55	69	46	61	55.7992115517510995915	72.1619443917649192599	48.6119826568964228386	57.3911494310875625047
5.0.14.0	win	042919	13:55:28	007	1	game	3	iti	374	1	94	94	2	0	2000	545	2	1	2	69	57	69	42	59	6588	69	1	2	55	69	46	61	55.7992115517510995915	72.1619443917649192599	48.6119826568964228386	57.3911494310875625047
5.0.14.0	win	042919	13:55:28	007	1	game	3	selection	375	1	95	95	2	slot2	509	509	2	1	2	69	57	69	42	59	6655	67	1	2	61	67	52	57	57.3230723410674372076	74.144684866951905633	46.8373959234947605523	54.6355182078108185806
5.0.14.0	win	042919	13:55:28	007	1	game	3	iti	378	1	95	95	2	0	2000	509	2	1	2	67	57	67	42	59	6655	67	1	2	61	67	52	57	57.3230723410674372076	74.144684866951905633	46.8373959234947605523	54.6355182078108185806
5.0.14.0	win	042919	13:55:28	007	1	game	3	selection	379	1	96	96	2	slot2	540	540	2	1	2	67	57	67	42	59	6723	68	1	2	60	68	49	54	53.7139777081642080248	73.0864304488960954131	49.8259143779710527156	58.6246142731428676598
5.0.14.0	win	042919	13:55:28	007	1	game	3	iti	382	1	96	96	2	0	2000	540	2	1	2	68	57	68	42	59	6723	68	1	2	60	68	49	54	53.7139777081642080248	73.0864304488960954131	49.8259143779710527156	58.6246142731428676598
5.0.14.0	win	042919	13:55:28	007	1	game	3	selection	383	1	97	97	2	slot2	488	488	2	1	2	68	57	68	42	59	6797	74	1	2	53	74	52	67	53.8924696948191339629	75.2749447848763111324	50.0402594764575638919	60.9718647946515233116
5.0.14.0	win	042919	13:55:28	007	1	game	3	iti	386	1	97	97	2	0	2000	488	2	1	2	74	57	74	42	59	6797	74	1	2	53	74	52	67	53.8924696948191339629	75.2749447848763111324	50.0402594764575638919	60.9718647946515233116
5.0.14.0	win	042919	13:55:28	007	1	game	3	selection	387	1	98	98	2	slot2	346	346	2	1	2	74	57	74	42	59	6871	74	1	2	50	74	55	60	53.2971597899003981524	72.3770240404453915062	50.7272029693221355728	62.6078043115096392057
5.0.14.0	win	042919	13:55:28	007	1	game	3	iti	390	1	98	98	2	0	2000	346	2	1	2	74	57	74	42	59	6871	74	1	2	50	74	55	60	53.2971597899003981524	72.3770240404453915062	50.7272029693221355728	62.6078043115096392057
5.0.14.0	win	042919	13:55:28	007	1	game	3	selection	391	1	99	99	3	0	1500	1500	0	0	2	74	57	74	42	59	6871	0	0	2	54	72	58	64	53.1673832053943939968	71.4054022050032699553	54.7901671413649893339	59.8650668935336938148
5.0.14.0	win	042919	13:55:28	007	1	game	3	iti	393	1	99	99	3	0	2000	1500	0	0	2	74	57	74	42	59	6871	0	0	2	54	72	58	64	53.1673832053943939968	71.4054022050032699553	54.7901671413649893339	59.8650668935336938148
5.0.14.0	win	042919	13:55:28	007	1	game	3	selection	394	1	100	100	3	slot2	289	289	2	1	2	74	57	74	42	59	6949	78	1	2	49	78	50	56	53.7348683143840659682	77.2068851044336952327	51.7694895163563586493	56.8088788679774197021
5.0.14.0	win	042919	13:55:28	007	1	game	3	iti	397	1	100	100	3	0	2000	289	2	1	2	78	57	78	42	59	6949	78	1	2	49	78	50	56	53.7348683143840659682	77.2068851044336952327	51.7694895163563586493	56.8088788679774197021
5.0.14.0	win	042919	13:55:28	007	1	game	3	selection	398	1	101	101	3	slot2	549	549	2	1	2	78	57	78	42	59	7033	84	1	2	48	84	47	52	51.6985896503038873107	79.9123046960801843852	48.4155624144596927749	53.4343026339361273358
5.0.14.0	win	042919	13:55:28	007	1	game	3	iti	401	1	101	101	3	0	2000	549	2	1	2	84	57	84	42	59	7033	84	1	2	48	84	47	52	51.6985896503038873107	79.9123046960801843852	48.4155624144596927749	53.4343026339361273358
5.0.14.0	win	042919	13:55:28	007	1	game	3	selection	402	1	102	102	3	slot2	377	377	2	1	2	84	57	84	42	59	7116	83	1	2	56	83	41	54	54.237416262920596921	80.1374480165155347322	44.1340692688522366893	52.190691554117009332
5.0.14.0	win	042919	13:55:28	007	1	game	3	iti	405	1	102	102	3	0	2000	377	2	1	2	83	57	83	42	59	7116	83	1	2	56	83	41	54	54.237416262920596921	80.1374480165155347322	44.1340692688522366893	52.190691554117009332
5.0.14.0	win	042919	13:55:28	007	1	game	3	selection	406	1	103	103	3	slot2	285	285	2	1	2	83	57	83	42	59	7188	72	1	2	56	72	47	52	57.4152713608270772738	77.987342634120409457	44.0164885966612899892	51.8333689976546878597
5.0.14.0	win	042919	13:55:28	007	1	game	3	iti	409	1	103	103	3	0	2000	285	2	1	2	72	57	72	42	59	7188	72	1	2	56	72	47	52	57.4152713608270772738	77.987342634120409457	44.0164885966612899892	51.8333689976546878597
5.0.14.0	win	042919	13:55:28	007	1	game	3	selection	410	1	104	104	3	slot2	383	383	2	1	2	72	57	72	42	59	7263	75	1	2	56	75	40	53	57.9717699548225695594	78.1442836268629861252	43.8578823259711114702	50.2626392804426416205
5.0.14.0	win	042919	13:55:28	007	1	game	3	iti	413	1	104	104	3	0	2000	383	2	1	2	75	57	75	42	59	7263	75	1	2	56	75	40	53	57.9717699548225695594	78.1442836268629861252	43.8578823259711114702	50.2626392804426416205
5.0.14.0	win	042919	13:55:28	007	1	game	3	selection	414	1	105	105	3	slot2	220	220	2	1	2	75	57	75	42	59	7344	81	1	2	53	81	41	48	56.1187739414890316425	80.4755013130778422692	41.2186854975921619371	48.5255115441367195217
5.0.14.0	win	042919	13:55:28	007	1	game	3	iti	417	1	105	105	3	0	2000	220	2	1	2	81	57	81	42	59	7344	81	1	2	53	81	41	48	56.1187739414890316425	80.4755013130778422692	41.2186854975921619371	48.5255115441367195217
5.0.14.0	win	042919	13:55:28	007	1	game	3	selection	418	1	106	106	3	slot2	315	315	2	1	2	81	57	81	42	59	7420	76	1	2	56	76	30	45	60.9461450009585945509	81.7369742196754458519	42.5390062658672789553	44.946149509852546089
5.0.14.0	win	042919	13:55:28	007	1	game	3	iti	421	1	106	106	3	0	2000	315	2	1	2	76	57	76	42	59	7420	76	1	2	56	76	30	45	60.9461450009585945509	81.7369742196754458519	42.5390062658672789553	44.946149509852546089
5.0.14.0	win	042919	13:55:28	007	1	game	3	selection	422	1	107	107	3	slot2	379	379	2	1	2	76	57	76	42	59	7503	83	1	2	64	83	39	44	66.9532738349697211788	80.8673563009615747887	43.3971894721439994669	44.4894370185367904469
5.0.14.0	win	042919	13:55:28	007	1	game	3	iti	425	1	107	107	3	0	2000	379	2	1	2	83	57	83	42	59	7503	83	1	2	64	83	39	44	66.9532738349697211788	80.8673563009615747887	43.3971894721439994669	44.4894370185367904469
5.0.14.0	win	042919	13:55:28	007	1	game	3	selection	426	1	108	108	3	slot2	306	306	2	1	2	83	57	83	42	59	7584	81	1	2	62	81	43	46	66.7951912466610906449	77.3266519312171425327	46.3039272329707785048	46.471652392247513319
5.0.14.0	win	042919	13:55:28	007	1	game	3	iti	429	1	108	108	3	0	2000	306	2	1	2	81	57	81	42	59	7584	81	1	2	62	81	43	46	66.7951912466610906449	77.3266519312171425327	46.3039272329707785048	46.471652392247513319
5.0.14.0	win	042919	13:55:28	007	1	game	3	selection	430	1	109	109	3	slot2	403	403	2	1	2	81	57	81	42	59	7661	77	1	2	63	77	46	42	64.8258920857744698196	75.9210878315835060448	46.0075907851968395335	42.6506106697573557085
5.0.14.0	win	042919	13:55:28	007	1	game	3	iti	433	1	109	109	3	0	2000	403	2	1	2	77	57	77	42	59	7661	77	1	2	63	77	46	42	64.8258920857744698196	75.9210878315835060448	46.0075907851968395335	42.6506106697573557085
5.0.14.0	win	042919	13:55:28	007	1	game	3	selection	434	1	110	110	3	slot2	454	454	2	1	2	77	57	77	42	59	7731	70	1	2	63	70	37	51	60.5532057389092699395	72.6949266821870594413	45.0960839973265308345	45.9333005624739030281
5.0.14.0	win	042919	13:55:28	007	1	game	3	iti	437	1	110	110	3	0	2000	454	2	1	2	70	57	70	42	59	7731	70	1	2	63	70	37	51	60.5532057389092699395	72.6949266821870594413	45.0960839973265308345	45.9333005624739030281
5.0.14.0	win	042919	13:55:28	007	1	game	3	selection	438	1	111	111	3	slot2	1284	1284	2	1	2	70	57	70	42	59	7801	70	1	2	55	70	53	45	62.4144382047564363347	69.7937276992253714525	48.4376824276664947888	45.0766244453803679448
5.0.14.0	win	042919	13:55:28	007	1	game	3	iti	441	1	111	111	3	0	2000	1284	2	1	2	70	57	70	42	59	7801	70	1	2	55	70	53	45	62.4144382047564363347	69.7937276992253714525	48.4376824276664947888	45.0766244453803679448
5.0.14.0	win	042919	13:55:28	007	1	game	3	selection	442	1	112	112	3	slot2	522	522	2	1	2	70	57	70	42	59	7873	72	1	2	54	72	45	42	58.1776433918448532268	68.8316079877128146336	48.3726999425386736675	47.5533566049097728978
5.0.14.0	win	042919	13:55:28	007	1	game	3	iti	445	1	112	112	3	0	2000	522	2	1	2	72	57	72	42	59	7873	72	1	2	54	72	45	42	58.1776433918448532268	68.8316079877128146336	48.3726999425386736675	47.5533566049097728978
5.0.14.0	win	042919	13:55:28	007	1	game	3	selection	446	1	113	113	3	slot2	236	236	2	1	2	72	57	72	42	59	7940	67	1	2	53	67	47	51	59.1755756470401053093	66.6014240115380289353	46.1732808458558707798	43.7136556903323238998
5.0.14.0	win	042919	13:55:28	007	1	game	3	iti	449	1	113	113	3	0	2000	236	2	1	2	67	57	67	42	59	7940	67	1	2	53	67	47	51	59.1755756470401053093	66.6014240115380289353	46.1732808458558707798	43.7136556903323238998
5.0.14.0	win	042919	13:55:28	007	1	game	3	selection	450	1	114	114	4	0	1500	1500	0	0	2	67	57	67	42	59	7940	0	0	1	64	58	50	49	57.3876033053837915077	65.8871520711951745852	48.7574682342061862528	46.0479613038711832473
5.0.14.0	win	042919	13:55:28	007	1	game	3	iti	452	1	114	114	4	0	2000	1500	0	0	2	67	57	67	42	59	7940	0	0	1	64	58	50	49	57.3876033053837915077	65.8871520711951745852	48.7574682342061862528	46.0479613038711832473
5.0.14.0	win	042919	13:55:28	007	1	game	3	selection	453	1	115	115	4	slot2	269	269	2	1	2	67	57	67	42	59	8014	74	1	2	56	74	42	43	54.5437018306098551079	66.7588269964107894339	49.5361952392561377678	41.4230717154129450819
5.0.14.0	win	042919	13:55:28	007	1	game	3	iti	456	1	115	115	4	0	2000	269	2	1	2	74	57	74	42	59	8014	74	1	2	56	74	42	43	54.5437018306098551079	66.7588269964107894339	49.5361952392561377678	41.4230717154129450819
5.0.14.0	win	042919	13:55:28	007	1	game	3	selection	457	1	116	116	4	slot2	372	372	2	1	2	74	57	74	42	59	8079	65	1	2	52	65	43	44	54.3874496139762868552	68.4105607317728754424	46.7074351578801838514	45.394759058793034967
5.0.14.0	win	042919	13:55:28	007	1	game	3	iti	460	1	116	116	4	0	2000	372	2	1	2	65	57	65	42	59	8079	65	1	2	52	65	43	44	54.3874496139762868552	68.4105607317728754424	46.7074351578801838514	45.394759058793034967
5.0.14.0	win	042919	13:55:28	007	1	game	3	selection	461	1	117	117	4	slot2	491	491	2	1	2	65	57	65	42	59	8138	59	1	2	49	59	43	56	53.4016979422493847096	62.9878532254056935358	47.1608212113083524741	52.7272409934802439579
5.0.14.0	win	042919	13:55:28	007	1	game	3	iti	464	1	117	117	4	0	2000	491	2	1	2	59	57	59	42	59	8138	59	1	2	49	59	43	56	53.4016979422493847096	62.9878532254056935358	47.1608212113083524741	52.7272409934802439579
5.0.14.0	win	042919	13:55:28	007	1	game	3	selection	465	1	118	118	4	slot2	538	538	2	1	2	59	57	59	42	59	8197	59	1	2	58	59	44	53	51.6948034404317553481	60.3922425621419804997	47.3302172441465884845	54.7089925866234239038
5.0.14.0	win	042919	13:55:28	007	1	game	3	iti	468	1	118	118	4	0	2000	538	2	1	2	59	57	59	42	59	8197	59	1	2	58	59	44	53	51.6948034404317553481	60.3922425621419804997	47.3302172441465884845	54.7089925866234239038
5.0.14.0	win	042919	13:55:28	007	1	game	3	selection	469	1	119	119	4	slot2	399	399	2	1	2	59	57	59	42	59	8252	55	1	2	44	55	47	48	48.8796456201948572584	57.0639212118459724365	49.1883621337718324185	51.9684968815223271577
5.0.14.0	win	042919	13:55:28	007	1	game	3	iti	472	1	119	119	4	0	2000	399	2	1	4	59	57	55	42	59	8252	55	1	2	44	55	47	48	48.8796456201948572584	57.0639212118459724365	49.1883621337718324185	51.9684968815223271577
5.0.14.0	win	042919	13:55:28	007	1	game	3	selection	473	1	120	120	4	slot2	303	303	2	2	4	59	57	55	42	59	8316	64	1	2	49	64	55	60	48.4453660505943517478	61.352923545250916959	48.5360652409783241978	59.9201193524760782338
5.0.14.0	win	042919	13:55:28	007	1	game	3	iti	476	1	120	120	4	0	2000	303	2	2	2	64	57	64	42	59	8316	64	1	2	49	64	55	60	48.4453660505943517478	61.352923545250916959	48.5360652409783241978	59.9201193524760782338
5.0.14.0	win	042919	13:55:28	007	1	game	3	selection	477	1	121	121	4	slot2	352	352	2	1	2	64	57	64	42	59	8378	62	1	2	53	62	40	51	49.7060018911257657237	59.7110745160539337917	45.4254712126582376186	55.4973218060054094281
5.0.14.0	win	042919	13:55:28	007	1	game	3	iti	480	1	121	121	4	0	2000	352	2	1	2	62	57	62	42	59	8378	62	1	2	53	62	40	51	49.7060018911257657237	59.7110745160539337917	45.4254712126582376186	55.4973218060054094281
5.0.14.0	win	042919	13:55:28	007	1	game	3	selection	481	1	122	122	4	slot2	493	493	2	1	2	62	57	62	42	59	8445	67	1	2	51	67	47	54	50.5107531133258120803	64.4421912305138988586	48.2068543413408221454	54.684685243928477405
5.0.14.0	win	042919	13:55:28	007	1	game	3	iti	484	1	122	122	4	0	2000	493	2	1	2	67	57	67	42	59	8445	67	1	2	51	67	47	54	50.5107531133258120803	64.4421912305138988586	48.2068543413408221454	54.684685243928477405
5.0.14.0	win	042919	13:55:28	007	1	game	3	selection	485	1	123	123	4	slot2	572	572	2	1	2	67	57	67	42	59	8508	63	1	2	54	63	40	43	54.2215313604650717139	67.7446146801553226169	48.7323401624948218114	49.9180354743378771332
5.0.14.0	win	042919	13:55:28	007	1	game	3	iti	488	1	123	123	4	0	2000	572	2	1	2	63	57	63	42	59	8508	63	1	2	54	63	40	43	54.2215313604650717139	67.7446146801553226169	48.7323401624948218114	49.9180354743378771332
5.0.14.0	win	042919	13:55:28	007	1	game	3	selection	489	1	124	124	4	slot2	454	454	2	1	2	63	57	63	42	59	8575	67	1	2	57	67	55	48	56.1463613316746261717	67.6303872765287366065	53.6490166887657125017	48.1483637903101495681
5.0.14.0	win	042919	13:55:28	007	1	game	3	iti	492	1	124	124	4	0	2000	454	2	1	2	67	57	67	42	59	8575	67	1	2	57	67	55	48	56.1463613316746261717	67.6303872765287366065	53.6490166887657125017	48.1483637903101495681
5.0.14.0	win	042919	13:55:28	007	1	game	3	selection	493	1	125	125	4	slot2	370	370	2	1	2	67	57	67	42	59	8643	68	1	2	58	68	56	52	59.9007456948941552355	67.9645641489926077838	55.7036000674105622466	49.1628988005440064057
5.0.14.0	win	042919	13:55:28	007	1	game	3	iti	496	1	125	125	4	0	2000	370	2	1	2	68	57	68	42	59	8643	68	1	2	58	68	56	52	59.9007456948941552355	67.9645641489926077838	55.7036000674105622466	49.1628988005440064057
5.0.14.0	win	042919	13:55:28	007	1	game	3	selection	497	1	126	126	4	slot2	317	317	2	1	2	68	57	68	42	59	8695	52	2	3	57	52	60	54	58.7225160304534838929	66.2725436817656685662	58.1403017056053741385	49.4506367744305990186
5.0.14.0	win	042919	13:55:28	007	1	game	3	iti	500	1	126	126	4	0	2000	317	2	1	4	59	57	52	42	59	8695	52	2	3	57	52	60	54	58.7225160304534838929	66.2725436817656685662	58.1403017056053741385	49.4506367744305990186
5.0.14.0	win	042919	13:55:28	007	1	game	3	selection	501	1	127	127	4	slot2	461	461	2	2	4	59	57	52	42	59	8758	63	1	2	55	63	56	54	58.9900376676332030002	68.7712519094073968517	57.5524204192312538453	53.6358320516036002346
5.0.14.0	win	042919	13:55:28	007	1	game	3	iti	504	1	127	127	4	0	2000	461	2	2	2	63	57	63	42	59	8758	63	1	2	55	63	56	54	58.9900376676332030002	68.7712519094073968517	57.5524204192312538453	53.6358320516036002346
5.0.14.0	win	042919	13:55:28	007	1	game	3	selection	505	1	128	128	4	slot2	341	341	2	1	2	63	57	63	42	59	8826	68	1	2	61	68	51	53	60.40430313423886588	69.404218997204722541	59.2825995553221147816	50.9221343715360816873
5.0.14.0	win	042919	13:55:28	007	1	game	3	iti	508	1	128	128	4	0	2000	341	2	1	2	68	57	68	42	59	8826	68	1	2	61	68	51	53	60.40430313423886588	69.404218997204722541	59.2825995553221147816	50.9221343715360816873
5.0.14.0	win	042919	13:55:28	007	1	game	3	selection	509	1	129	129	4	slot2	516	516	2	1	2	68	57	68	42	59	8908	82	1	2	58	82	51	48	59.8539602046834247062	69.5375092030096766393	55.6660743374659077176	50.9043125159978870897
5.0.14.0	win	042919	13:55:28	007	1	game	3	iti	512	1	129	129	4	0	2000	516	2	1	2	82	57	82	42	59	8908	82	1	2	58	82	51	48	59.8539602046834247062	69.5375092030096766393	55.6660743374659077176	50.9043125159978870897
5.0.14.0	win	042919	13:55:28	007	1	game	3	selection	513	1	130	130	4	slot2	486	486	2	1	2	82	57	82	42	59	8977	69	1	2	65	69	53	52	62.0160814481745390481	66.9524012856884240819	53.6641376489046990628	49.6734571219152130084
5.0.14.0	win	042919	13:55:28	007	1	game	3	iti	516	1	130	130	4	0	2000	486	2	1	2	69	57	69	42	59	8977	69	1	2	65	69	53	52	62.0160814481745390481	66.9524012856884240819	53.6641376489046990628	49.6734571219152130084
5.0.14.0	win	042919	13:55:28	007	1	game	3	selection	517	1	131	131	4	slot2	514	514	2	1	2	69	57	69	42	59	9050	73	1	2	61	73	56	51	61.6159795156554110918	68.2657425248495428605	56.4545124165382148362	48.9098693919246869655
5.0.14.0	win	042919	13:55:28	007	1	game	3	iti	520	1	131	131	4	0	2000	514	2	1	2	73	57	73	42	59	9050	73	1	2	61	73	56	51	61.6159795156554110918	68.2657425248495428605	56.4545124165382148362	48.9098693919246869655
5.0.14.0	win	042919	13:55:28	007	1	game	3	selection	521	1	132	132	4	slot2	515	515	2	1	2	73	57	73	42	59	9116	66	1	2	62	66	61	53	61.7039165167883680851	68.443358830457896147	58.8746352890996789142	48.9360785496834722608
5.0.14.0	win	042919	13:55:28	007	1	game	3	iti	524	1	132	132	4	0	2000	515	2	1	2	66	57	66	42	59	9116	66	1	2	62	66	61	53	61.7039165167883680851	68.443358830457896147	58.8746352890996789142	48.9360785496834722608
5.0.14.0	win	042919	13:55:28	007	1	game	3	selection	525	1	133	133	4	slot2	377	377	2	1	2	66	57	66	42	59	9191	75	1	2	61	75	64	53	61.2343220701337074274	69.56642785403415985	61.2455477214980916756	51.1668019331487400336
5.0.14.0	win	042919	13:55:28	007	1	game	3	iti	528	1	133	133	4	0	2000	377	2	1	2	75	57	75	42	59	9191	75	1	2	61	75	64	53	61.2343220701337074274	69.56642785403415985	61.2455477214980916756	51.1668019331487400336
5.0.14.0	win	042919	13:55:28	007	1	game	3	selection	529	1	134	134	4	slot2	552	552	2	1	2	75	57	75	42	59	9259	68	1	2	61	68	66	58	62.9449208446116799109	68.3757799139261805976	64.6192237784462832906	54.2035133423532613506
5.0.14.0	win	042919	13:55:28	007	1	game	3	iti	532	1	134	134	4	0	2000	552	2	1	2	68	57	68	42	59	9259	68	1	2	61	68	66	58	62.9449208446116799109	68.3757799139261805976	64.6192237784462832906	54.2035133423532613506
5.0.14.0	win	042919	13:55:28	007	1	game	3	selection	533	1	135	135	4	slot2	603	603	2	1	2	68	57	68	42	59	9327	68	1	2	61	68	66	43	59.9388877133105282269	64.6342399375816683005	66.0287896486180301281	49.4927327262793852469
5.0.14.0	win	042919	13:55:28	007	1	game	3	iti	536	1	135	135	4	0	2000	603	2	1	2	68	57	68	42	59	9327	68	1	2	61	68	66	43	59.9388877133105282269	64.6342399375816683005	66.0287896486180301281	49.4927327262793852469
5.0.14.0	win	042919	13:55:28	007	1	game	3	selection	537	1	136	136	4	slot2	238	238	2	1	2	68	57	68	42	59	9391	64	1	2	53	64	58	54	57.7155025268802930327	63.5343180520379249288	62.179299306364363531	53.8421934249310254472
5.0.14.0	win	042919	13:55:28	007	1	game	3	iti	540	1	136	136	4	0	2000	238	2	1	2	64	57	64	42	59	9391	64	1	2	53	64	58	54	57.7155025268802930327	63.5343180520379249288	62.179299306364363531	53.8421934249310254472
5.0.14.0	win	042919	13:55:28	007	1	game	3	selection	541	1	137	137	4	slot2	41	41	2	1	2	64	57	64	42	59	9452	61	2	3	50	61	64	54	53.9979553873858435509	63.4680056495270079608	63.0119216080615203168	52.5924056201565548463
5.0.14.0	win	042919	13:55:28	007	1	game	3	iti	544	1	137	137	4	0	2000	41	2	1	2	61	57	61	42	59	9452	61	2	3	50	61	64	54	53.9979553873858435509	63.4680056495270079608	63.0119216080615203168	52.5924056201565548463
5.0.14.0	win	042919	13:55:28	007	1	game	3	selection	545	1	138	138	4	slot2	291	291	2	1	2	61	57	61	42	59	9519	67	1	2	62	67	59	57	57.1445818941145944336	64.5211992564324816612	61.6505430236797451471	52.2484007259441938231
5.0.14.0	win	042919	13:55:28	007	1	game	3	iti	548	1	138	138	4	0	2000	291	2	1	2	67	57	67	42	59	9519	67	1	2	62	67	59	57	57.1445818941145944336	64.5211992564324816612	61.6505430236797451471	52.2484007259441938231
5.0.14.0	win	042919	13:55:28	007	1	game	3	selection	549	1	139	139	4	slot2	301	301	2	1	2	67	57	67	42	59	9592	73	1	2	52	73	62	57	54.5265317452531661502	68.2152663502830876041	61.1283069209369074315	56.355381205550443724
5.0.14.0	win	042919	13:55:28	007	1	game	3	iti	552	1	139	139	4	0	2000	301	2	1	2	73	57	73	42	59	9592	73	1	2	52	73	62	57	54.5265317452531661502	68.2152663502830876041	61.1283069209369074315	56.355381205550443724
5.0.14.0	win	042919	13:55:28	007	1	game	3	selection	553	1	140	140	4	slot2	426	426	2	1	2	73	57	73	42	59	9663	71	1	2	66	71	56	53	57.9090632240987446266	68.2010574034969607737	55.825659806578968869	57.3753564685406161061
5.0.14.0	win	042919	13:55:28	007	1	game	3	iti	556	1	140	140	4	0	2000	426	2	1	2	71	57	71	42	59	9663	71	1	2	66	71	56	53	57.9090632240987446266	68.2010574034969607737	55.825659806578968869	57.3753564685406161061
5.0.14.0	win	042919	13:55:28	007	1	game	3	selection	557	1	141	141	4	slot2	501	501	2	1	2	71	57	71	42	59	9735	72	1	2	60	72	61	62	57.0001113011636064698	68.8931077504532254352	60.6712345642250028277	60.7413833369111131333
5.0.14.0	win	042919	13:55:28	007	1	game	3	iti	560	1	141	141	4	0	2000	501	2	1	2	72	57	72	42	59	9735	72	1	2	60	72	61	62	57.0001113011636064698	68.8931077504532254352	60.6712345642250028277	60.7413833369111131333
5.0.14.0	win	042919	13:55:28	007	1	game	3	selection	561	1	142	142	4	slot2	521	521	2	1	2	72	57	72	42	59	9808	73	1	2	49	73	59	63	54.3553020451787674006	68.2165676652257246815	63.719803285691583028	60.9899745522967364764
5.0.14.0	win	042919	13:55:28	007	1	game	3	iti	564	1	142	142	4	0	2000	521	2	1	2	73	57	73	42	59	9808	73	1	2	49	73	59	63	54.3553020451787674006	68.2165676652257246815	63.719803285691583028	60.9899745522967364764
5.0.14.0	win	042919	13:55:28	007	1	game	3	selection	565	1	143	143	4	slot2	465	465	2	1	2	73	57	73	42	59	9885	77	1	2	49	77	58	60	58.1836645547611865936	74.0753834785333111768	61.2753386428372621708	61.9496447176861764206
5.0.14.0	win	042919	13:55:28	007	1	game	3	iti	568	1	143	143	4	0	2000	465	2	1	2	77	57	77	42	59	9885	77	1	2	49	77	58	60	58.1836645547611865936	74.0753834785333111768	61.2753386428372621708	61.9496447176861764206
5.0.14.0	win	042919	13:55:28	007	1	game	3	selection	569	1	144	144	4	slot2	267	267	2	1	2	77	57	77	42	59	9962	77	1	2	52	77	67	54	55.8480669970777867661	80.3678080559194114585	62.4899837066225174453	61.1595931251511331084
5.0.14.0	win	042919	13:55:28	007	1	game	3	iti	572	1	144	144	4	0	2000	267	2	1	2	77	57	77	42	59	9962	77	1	2	52	77	67	54	55.8480669970777867661	80.3678080559194114585	62.4899837066225174453	61.1595931251511331084
5.0.14.0	win	042919	13:55:28	007	1	game	3	selection	573	1	145	145	4	slot2	255	255	2	1	2	77	57	77	42	59	10046	84	1	2	55	84	66	57	53.0004168740859427089	81.349818844153347186	61.6758299527236673043	64.5729348917829355514
5.0.14.0	win	042919	13:55:28	007	1	game	3	iti	576	1	145	145	4	0	2000	255	2	1	2	84	57	84	42	59	10046	84	1	2	55	84	66	57	53.0004168740859427089	81.349818844153347186	61.6758299527236673043	64.5729348917829355514
5.0.14.0	win	042919	13:55:28	007	1	game	3	selection	577	1	146	146	4	slot2	333	333	2	1	2	84	57	84	42	59	10125	79	1	2	52	79	64	53	53.8847662077869529185	80.7355957881157308975	61.722953094656553219	58.3868083749267938742
5.0.14.0	win	042919	13:55:28	007	1	game	3	iti	580	1	146	146	4	0	2000	333	2	1	2	79	57	79	42	59	10125	79	1	2	52	79	64	53	53.8847662077869529185	80.7355957881157308975	61.722953094656553219	58.3868083749267938742
5.0.14.0	win	042919	13:55:28	007	1	game	3	selection	581	1	147	147	4	slot2	404	404	2	1	2	79	57	79	42	59	10207	82	1	2	51	82	58	62	58.3357200956702115491	78.891734334960787578	59.8592545921383134555	63.7265030985603999625
5.0.14.0	win	042919	13:55:28	007	1	game	3	iti	584	1	147	147	4	0	2000	404	2	1	2	82	57	82	42	59	10207	82	1	2	51	82	58	62	58.3357200956702115491	78.891734334960787578	59.8592545921383134555	63.7265030985603999625
5.0.14.0	win	042919	13:55:28	007	1	game	3	selection	585	1	148	148	4	slot2	303	303	2	1	2	82	57	82	42	59	10282	75	1	2	56	75	64	63	58.7961914445873929935	77.6847560051528347458	62.3272605106835229094	65.1775737393691798616
5.0.14.0	win	042919	13:55:28	007	1	game	3	iti	588	1	148	148	4	0	2000	303	2	1	2	75	57	75	42	59	10282	75	1	2	56	75	64	63	58.7961914445873929935	77.6847560051528347458	62.3272605106835229094	65.1775737393691798616
5.0.14.0	win	042919	13:55:28	007	1	game	3	selection	589	1	149	149	4	slot2	417	417	2	1	2	75	57	75	42	59	10367	85	1	2	54	85	58	69	60.3133504600799525974	82.0931861143682510829	61.3025506010796519263	65.0040630439411870611
5.0.14.0	win	042919	13:55:28	007	1	game	3	iti	592	1	149	149	4	0	2000	417	2	1	2	85	57	85	42	59	10367	85	1	2	54	85	58	69	60.3133504600799525974	82.0931861143682510829	61.3025506010796519263	65.0040630439411870611
5.0.14.0	win	042919	13:55:28	007	1	game	3	selection	593	1	150	150	4	slot2	253	253	2	1	2	85	57	85	42	59	10445	78	1	2	50	78	56	55	56.4996501589202324567	80.20726032312074949	56.9429911372162322891	63.3600089486996793653
5.0.14.0	win	042919	13:55:28	007	1	game	3	iti	596	1	150	150	4	0	2000	253	2	1	2	78	57	78	42	59	10445	78	1	2	50	78	56	55	56.4996501589202324567	80.20726032312074949	56.9429911372162322891	63.3600089486996793653
