build	computer.platform	date	time	subject	group	blockcode	blocknum	trialcode	trialnum	values.countRounds	values.TotaltrialCount	values.trialCount_perRound	values.noResponseCount	response	latency	values.selectionRT	values.selectedSlot	values.choice	values.currenthighestSeenPayOffSlot	values.currenthighestSeenPayOff	values.lastSeenPayOff1	values.lastSeenPayOff2	values.lastSeenPayOff3	values.lastSeenPayOff4	values.total	values.currentPayoff	values.highestPayOffSelected	values.currentHighestPayOffSlot	values.payOff1	values.payOff2	values.payOff3	values.payOff4	values.mean1	values.mean2	values.mean3	values.mean4
5.0.14.0	win	042919	14:10:26	007	1	demo	1	selection	2	0	1	1	0	slot3	1351	1351	3	2	0	0	0	0	0	0	-21	-21	2	2	-34	-13	-21	-49	-29.9023573993651154979	-13.6607882402592899496	-20.2168416052389829929	-42.6427776205485926653
5.0.14.0	win	042919	14:10:26	007	1	demo	1	iti	5	0	1	1	0	0	2000	1351	3	2	1	0	0	0	-21	0	-21	-21	2	2	-34	-13	-21	-49	-29.9023573993651154979	-13.6607882402592899496	-20.2168416052389829929	-42.6427776205485926653
5.0.14.0	win	042919	14:10:26	007	1	demo	1	selection	6	0	2	2	0	slot1	655	655	1	1	1	0	0	0	-21	0	-58	-37	2	2	-37	-11	-29	-41	-34.0015888459137869404	-11.8188626309811581905	-18.9069414091943244216	-43.8681859164644833982
5.0.14.0	win	042919	14:10:26	007	1	demo	1	iti	9	0	2	2	0	0	2000	655	1	1	2	0	-37	0	-21	0	-58	-37	2	2	-37	-11	-29	-41	-34.0015888459137869404	-11.8188626309811581905	-18.9069414091943244216	-43.8681859164644833982
5.0.14.0	win	042919	14:10:26	007	1	demo	1	selection	10	0	3	3	1	0	1500	1500	0	0	2	0	-37	0	-21	0	-58	0	0	2	-27	-4	-19	-43	-34.2878490262811013167	-8.7787353453859164887	-19.0063219337549256238	-42.0672140513072605472
5.0.14.0	win	042919	14:10:26	007	1	demo	1	iti	12	0	3	3	1	0	2000	1500	0	0	2	0	-37	0	-21	0	-58	0	0	2	-27	-4	-19	-43	-34.2878490262811013167	-8.7787353453859164887	-19.0063219337549256238	-42.0672140513072605472
5.0.14.0	win	042919	14:10:26	007	1	demo	1	selection	13	0	4	4	1	slot4	640	640	4	2	2	0	-37	0	-21	0	-94	-36	2	2	-33	-9	-28	-36	-34.0726660218359143073	-8.8652264183174871448	-21.8535071088393237915	-37.1031828325076062924
5.0.14.0	win	042919	14:10:26	007	1	demo	1	iti	16	0	4	4	1	0	2000	640	4	2	2	0	-37	0	-21	-36	-94	-36	2	2	-33	-9	-28	-36	-34.0726660218359143073	-8.8652264183174871448	-21.8535071088393237915	-37.1031828325076062924
5.0.14.0	win	042919	14:10:26	007	1	demo	1	selection	17	0	5	5	2	0	1500	1500	0	0	2	0	-37	0	-21	-36	-94	0	0	2	-34	-6	-20	-42	-34.0711382160199960367	-8.408916170614272545	-21.028459595835155227	-37.2892536581764346693
5.0.14.0	win	042919	14:10:26	007	1	demo	1	iti	19	0	5	5	2	0	2000	1500	0	0	2	0	-37	0	-21	-36	-94	0	0	2	-34	-6	-20	-42	-34.0711382160199960367	-8.408916170614272545	-21.028459595835155227	-37.2892536581764346693
5.0.14.0	win	042919	14:10:26	007	1	game	3	selection	1	1	1	1	0	slot2	1032	1032	2	2	0	0	0	0	0	0	-85	-85	2	3	-63	-85	-25	-42	-59.2264848103406364999	-78.5534784386027240544	-16.7218477362845838741	-39.665705150441034732
5.0.14.0	win	042919	14:10:26	007	1	game	3	iti	4	1	1	1	0	0	2000	1032	2	2	1	0	0	-85	0	0	-85	-85	2	3	-63	-85	-25	-42	-59.2264848103406364999	-78.5534784386027240544	-16.7218477362845838741	-39.665705150441034732
5.0.14.0	win	042919	14:10:26	007	1	game	3	selection	5	1	2	2	0	slot3	408	408	3	2	1	0	0	-85	0	0	-104	-19	1	3	-55	-70	-19	-34	-57.6237862899188684196	-78.3993048180477529741	-18.9292629637296307976	-35.7089634314159027895
5.0.14.0	win	042919	14:10:26	007	1	game	3	iti	8	1	2	2	0	0	2000	408	3	2	1	0	0	-85	-19	0	-104	-19	1	3	-55	-70	-19	-34	-57.6237862899188684196	-78.3993048180477529741	-18.9292629637296307976	-35.7089634314159027895
5.0.14.0	win	042919	14:10:26	007	1	game	3	selection	9	1	3	3	0	slot4	422	422	4	2	1	0	0	-85	-19	0	-136	-32	2	3	-62	-76	-25	-32	-59.0274270930827213988	-78.1581524065746862107	-19.7140354684481664549	-36.6306058565070529198
5.0.14.0	win	042919	14:10:26	007	1	game	3	iti	12	1	3	3	0	0	2000	422	4	2	1	0	0	-85	-19	-32	-136	-32	2	3	-62	-76	-25	-32	-59.0274270930827213988	-78.1581524065746862107	-19.7140354684481664549	-36.6306058565070529198
5.0.14.0	win	042919	14:10:26	007	1	game	3	selection	13	1	4	4	0	slot1	654	654	1	1	1	0	0	-85	-19	-32	-195	-59	2	3	-59	-79	-18	-35	-59.1834315380453688249	-84.1526324922421906649	-17.292807732535067089	-37.7112954115578205005
5.0.14.0	win	042919	14:10:26	007	1	game	3	iti	16	1	4	4	0	0	2000	654	1	1	3	-19	-59	-85	-19	-32	-195	-59	2	3	-59	-79	-18	-35	-59.1834315380453688249	-84.1526324922421906649	-17.292807732535067089	-37.7112954115578205005
5.0.14.0	win	042919	14:10:26	007	1	game	3	selection	17	1	5	5	0	slot2	360	360	2	2	3	-19	-59	-85	-19	-32	-270	-75	2	4	-63	-75	-35	-34	-60.5911859376570873792	-76.4816588935374426228	-22.7707747015239370114	-37.9392934305067655032
5.0.14.0	win	042919	14:10:26	007	1	game	3	iti	20	1	5	5	0	0	2000	360	2	2	3	-19	-59	-75	-19	-32	-270	-75	2	4	-63	-75	-35	-34	-60.5911859376570873792	-76.4816588935374426228	-22.7707747015239370114	-37.9392934305067655032
5.0.14.0	win	042919	14:10:26	007	1	game	3	selection	21	1	6	6	0	slot3	274	274	3	1	3	-19	-59	-75	-19	-32	-298	-28	1	3	-56	-62	-28	-41	-54.1900967937849884493	-69.5941001634709550672	-26.270334388548508997	-40.6251109747737402245
5.0.14.0	win	042919	14:10:26	007	1	game	3	iti	24	1	6	6	0	0	2000	274	3	1	3	-28	-59	-75	-28	-32	-298	-28	1	3	-56	-62	-28	-41	-54.1900967937849884493	-69.5941001634709550672	-26.270334388548508997	-40.6251109747737402245
5.0.14.0	win	042919	14:10:26	007	1	game	3	selection	25	1	7	7	0	slot3	561	561	3	1	3	-28	-59	-75	-28	-32	-328	-30	1	3	-49	-66	-30	-51	-54.5942851381853131443	-66.6909944069625453267	-26.5200323831817286191	-50.9714154740273102107
5.0.14.0	win	042919	14:10:26	007	1	game	3	iti	28	1	7	7	0	0	2000	561	3	1	3	-30	-59	-75	-30	-32	-328	-30	1	3	-49	-66	-30	-51	-54.5942851381853131443	-66.6909944069625453267	-26.5200323831817286191	-50.9714154740273102107
5.0.14.0	win	042919	14:10:26	007	1	game	3	selection	29	1	8	8	0	slot3	324	324	3	1	3	-30	-59	-75	-30	-32	-356	-28	1	3	-52	-70	-28	-55	-54.7963869356838628732	-69.786962621039705823	-26.6660954212136473984	-51.4686740279869141546
5.0.14.0	win	042919	14:10:26	007	1	game	3	iti	32	1	8	8	0	0	2000	324	3	1	3	-28	-59	-75	-28	-32	-356	-28	1	3	-52	-70	-28	-55	-54.7963869356838628732	-69.786962621039705823	-26.6660954212136473984	-51.4686740279869141546
5.0.14.0	win	042919	14:10:26	007	1	game	3	selection	33	1	9	9	0	slot2	257	257	2	2	3	-28	-59	-75	-28	-32	-423	-67	2	3	-60	-67	-30	-54	-57.2593286333247490916	-69.5139772576333712095	-27.6086186922953054079	-53.5264069825780879341
5.0.14.0	win	042919	14:10:26	007	1	game	3	iti	36	1	9	9	0	0	2000	257	2	2	3	-28	-59	-67	-28	-32	-423	-67	2	3	-60	-67	-30	-54	-57.2593286333247490916	-69.5139772576333712095	-27.6086186922953054079	-53.5264069825780879341
5.0.14.0	win	042919	14:10:26	007	1	game	3	selection	37	1	10	10	0	slot4	307	307	4	2	3	-28	-59	-67	-28	-32	-484	-61	2	3	-56	-65	-35	-61	-52.1146987452088268356	-66.4895841732806758273	-27.9774025839687752182	-53.2155150012712425678
5.0.14.0	win	042919	14:10:26	007	1	game	3	iti	40	1	10	10	0	0	2000	307	4	2	3	-28	-59	-67	-28	-61	-484	-61	2	3	-56	-65	-35	-61	-52.1146987452088268356	-66.4895841732806758273	-27.9774025839687752182	-53.2155150012712425678
5.0.14.0	win	042919	14:10:26	007	1	game	3	selection	41	1	11	11	0	slot3	230	230	3	1	3	-28	-59	-67	-28	-61	-508	-24	1	3	-47	-64	-24	-53	-49.3080737729357139187	-69.6092936402110638028	-23.4062478503100379612	-51.1870066992967025499
5.0.14.0	win	042919	14:10:26	007	1	game	3	iti	44	1	11	11	0	0	2000	230	3	1	3	-24	-59	-67	-24	-61	-508	-24	1	3	-47	-64	-24	-53	-49.3080737729357139187	-69.6092936402110638028	-23.4062478503100379612	-51.1870066992967025499
5.0.14.0	win	042919	14:10:26	007	1	game	3	selection	45	1	12	12	0	slot3	180	180	3	1	3	-24	-59	-67	-24	-61	-534	-26	1	3	-45	-80	-26	-52	-46.920392773598869951	-73.4790168354404613638	-29.0966324890929932678	-53.0138083796308379192
5.0.14.0	win	042919	14:10:26	007	1	game	3	iti	48	1	12	12	0	0	2000	180	3	1	3	-26	-59	-67	-26	-61	-534	-26	1	3	-45	-80	-26	-52	-46.920392773598869951	-73.4790168354404613638	-29.0966324890929932678	-53.0138083796308379192
5.0.14.0	win	042919	14:10:26	007	1	game	3	selection	49	1	13	13	0	slot3	352	352	3	1	3	-26	-59	-67	-26	-61	-559	-25	1	3	-47	-74	-25	-50	-46.0515669128165825441	-72.4391752497159870927	-23.7589012279873159628	-49.2545469744713315663
5.0.14.0	win	042919	14:10:26	007	1	game	3	iti	52	1	13	13	0	0	2000	352	3	1	3	-25	-59	-67	-25	-61	-559	-25	1	3	-47	-74	-25	-50	-46.0515669128165825441	-72.4391752497159870927	-23.7589012279873159628	-49.2545469744713315663
5.0.14.0	win	042919	14:10:26	007	1	game	3	selection	53	1	14	14	0	slot3	20	20	3	1	3	-25	-59	-67	-25	-61	-578	-19	1	3	-40	-68	-19	-51	-45.6786782968016638051	-71.8251253526472339672	-24.1363666968971273263	-50.2657337912536661406
5.0.14.0	win	042919	14:10:26	007	1	game	3	iti	56	1	14	14	0	0	2000	20	3	1	3	-19	-59	-67	-19	-61	-578	-19	1	3	-40	-68	-19	-51	-45.6786782968016638051	-71.8251253526472339672	-24.1363666968971273263	-50.2657337912536661406
5.0.14.0	win	042919	14:10:26	007	1	game	3	selection	57	1	15	15	0	slot1	825	825	1	2	3	-19	-59	-67	-19	-61	-624	-46	2	3	-46	-67	-26	-49	-49.8733119964894768827	-68.5624615491267803691	-25.5865716349835814469	-47.4212348785975024157
5.0.14.0	win	042919	14:10:26	007	1	game	3	iti	60	1	15	15	0	0	2000	825	1	2	3	-19	-46	-67	-19	-61	-624	-46	2	3	-46	-67	-26	-49	-49.8733119964894768827	-68.5624615491267803691	-25.5865716349835814469	-47.4212348785975024157
5.0.14.0	win	042919	14:10:26	007	1	game	3	selection	61	1	16	16	0	slot3	454	454	3	1	3	-19	-46	-67	-19	-61	-652	-28	1	3	-42	-71	-28	-49	-47.8839507916491768924	-69.2128489764094325665	-26.0091658566525403273	-45.0670376134977175298
5.0.14.0	win	042919	14:10:26	007	1	game	3	iti	64	1	16	16	0	0	2000	454	3	1	3	-28	-46	-67	-28	-61	-652	-28	1	3	-42	-71	-28	-49	-47.8839507916491768924	-69.2128489764094325665	-26.0091658566525403273	-45.0670376134977175298
5.0.14.0	win	042919	14:10:26	007	1	game	3	selection	65	1	17	17	0	slot3	596	596	3	1	3	-28	-46	-67	-28	-61	-676	-24	1	3	-56	-67	-24	-41	-50.2134643868119567856	-66.2668332488480018583	-23.6258979285121384351	-45.3268201627755544791
5.0.14.0	win	042919	14:10:26	007	1	game	3	iti	68	1	17	17	0	0	2000	596	3	1	3	-24	-46	-67	-24	-61	-676	-24	1	3	-56	-67	-24	-41	-50.2134643868119567856	-66.2668332488480018583	-23.6258979285121384351	-45.3268201627755544791
5.0.14.0	win	042919	14:10:26	007	1	game	3	selection	69	1	18	18	0	slot3	254	254	3	1	3	-24	-46	-67	-24	-61	-698	-22	1	3	-45	-68	-22	-43	-50.7516883393268045666	-63.8169288636803244685	-22.8702555173334154404	-44.4721799241041892969
5.0.14.0	win	042919	14:10:26	007	1	game	3	iti	72	1	18	18	0	0	2000	254	3	1	3	-22	-46	-67	-22	-61	-698	-22	1	3	-45	-68	-22	-43	-50.7516883393268045666	-63.8169288636803244685	-22.8702555173334154404	-44.4721799241041892969
5.0.14.0	win	042919	14:10:26	007	1	game	3	selection	73	1	19	19	0	slot3	451	451	3	1	3	-22	-46	-67	-22	-61	-723	-25	1	3	-48	-60	-25	-42	-51.4958594156201741043	-60.7521138144873091846	-22.5378262331103904614	-44.0169121111969872118
5.0.14.0	win	042919	14:10:26	007	1	game	3	iti	76	1	19	19	0	0	2000	451	3	1	3	-25	-46	-67	-25	-61	-723	-25	1	3	-48	-60	-25	-42	-51.4958594156201741043	-60.7521138144873091846	-22.5378262331103904614	-44.0169121111969872118
5.0.14.0	win	042919	14:10:26	007	1	game	3	selection	77	1	20	20	0	slot3	314	314	3	1	3	-25	-46	-67	-25	-61	-744	-21	1	3	-45	-59	-21	-51	-50.4323449986194489725	-60.9327974795915565664	-18.5108462403373366101	-46.4074371280946991192
5.0.14.0	win	042919	14:10:26	007	1	game	3	iti	80	1	20	20	0	0	2000	314	3	1	3	-21	-46	-67	-21	-61	-744	-21	1	3	-45	-59	-21	-51	-50.4323449986194489725	-60.9327974795915565664	-18.5108462403373366101	-46.4074371280946991192
5.0.14.0	win	042919	14:10:26	007	1	game	3	selection	81	1	21	21	0	slot3	441	441	3	1	3	-21	-46	-67	-21	-61	-764	-20	1	3	-54	-65	-20	-49	-47.905222325599616795	-58.9569544564647642915	-23.6167415443443076128	-47.8805873548561962139
5.0.14.0	win	042919	14:10:26	007	1	game	3	iti	84	1	21	21	0	0	2000	441	3	1	3	-20	-46	-67	-20	-61	-764	-20	1	3	-54	-65	-20	-49	-47.905222325599616795	-58.9569544564647642915	-23.6167415443443076128	-47.8805873548561962139
5.0.14.0	win	042919	14:10:26	007	1	game	3	selection	85	1	22	22	0	slot3	270	270	3	1	3	-20	-46	-67	-20	-61	-796	-32	1	3	-51	-67	-32	-37	-52.2034158540981181318	-63.4713560399056646588	-26.8136720362066647283	-45.1532656685186069012
5.0.14.0	win	042919	14:10:26	007	1	game	3	iti	88	1	22	22	0	0	2000	270	3	1	3	-32	-46	-67	-32	-61	-796	-32	1	3	-51	-67	-32	-37	-52.2034158540981181318	-63.4713560399056646588	-26.8136720362066647283	-45.1532656685186069012
5.0.14.0	win	042919	14:10:26	007	1	game	3	selection	89	1	23	23	0	slot3	333	333	3	1	3	-32	-46	-67	-32	-61	-813	-17	1	3	-50	-68	-17	-49	-52.8069408616799620404	-67.5477525898173070118	-25.2594426926959165769	-45.5295955839837418466
5.0.14.0	win	042919	14:10:26	007	1	game	3	iti	92	1	23	23	0	0	2000	333	3	1	3	-17	-46	-67	-17	-61	-813	-17	1	3	-50	-68	-17	-49	-52.8069408616799620404	-67.5477525898173070118	-25.2594426926959165769	-45.5295955839837418466
5.0.14.0	win	042919	14:10:26	007	1	game	3	selection	93	1	24	24	0	slot3	379	379	3	1	3	-17	-46	-67	-17	-61	-835	-22	1	3	-50	-69	-22	-48	-55.6309622663782690211	-64.7155941336939832809	-18.3563000475823230317	-47.7718028854183174303
5.0.14.0	win	042919	14:10:26	007	1	game	3	iti	96	1	24	24	0	0	2000	379	3	1	3	-22	-46	-67	-22	-61	-835	-22	1	3	-50	-69	-22	-48	-55.6309622663782690211	-64.7155941336939832809	-18.3563000475823230317	-47.7718028854183174303
5.0.14.0	win	042919	14:10:26	007	1	game	3	selection	97	1	25	25	0	slot3	403	403	3	1	3	-22	-46	-67	-22	-61	-853	-18	1	3	-56	-63	-18	-52	-57.6202849780691934711	-63.4885821109176049504	-22.9696948759491235137	-52.9799192272301269213
5.0.14.0	win	042919	14:10:26	007	1	game	3	iti	100	1	25	25	0	0	2000	403	3	1	3	-18	-46	-67	-18	-61	-853	-18	1	3	-56	-63	-18	-52	-57.6202849780691934711	-63.4885821109176049504	-22.9696948759491235137	-52.9799192272301269213
5.0.14.0	win	042919	14:10:26	007	1	game	3	selection	101	1	26	26	0	slot3	190	190	3	1	3	-18	-46	-67	-18	-61	-878	-25	1	3	-55	-53	-25	-49	-59.9119453637988144123	-58.709992658869623483	-23.5406710178788500798	-50.3581621121755063086
5.0.14.0	win	042919	14:10:26	007	1	game	3	iti	104	1	26	26	0	0	2000	190	3	1	3	-25	-46	-67	-25	-61	-878	-25	1	3	-55	-53	-25	-49	-59.9119453637988144123	-58.709992658869623483	-23.5406710178788500798	-50.3581621121755063086
5.0.14.0	win	042919	14:10:26	007	1	game	3	selection	105	1	27	27	0	slot3	326	326	3	1	3	-25	-46	-67	-25	-61	-906	-28	1	3	-51	-59	-28	-49	-55.4969679345704705042	-60.6156983045975934488	-27.8597842327209832547	-49.043202391082104441
5.0.14.0	win	042919	14:10:26	007	1	game	3	iti	108	1	27	27	0	0	2000	326	3	1	3	-28	-46	-67	-28	-61	-906	-28	1	3	-51	-59	-28	-49	-55.4969679345704705042	-60.6156983045975934488	-27.8597842327209832547	-49.043202391082104441
5.0.14.0	win	042919	14:10:26	007	1	game	3	selection	109	1	28	28	0	slot3	389	389	3	1	3	-28	-46	-67	-28	-61	-933	-27	1	3	-56	-65	-27	-49	-59.2047866313025963336	-55.9165751256287890669	-33.2368861529747263717	-49.7859827219667678833
5.0.14.0	win	042919	14:10:26	007	1	game	3	iti	112	1	28	28	0	0	2000	389	3	1	3	-27	-46	-67	-27	-61	-933	-27	1	3	-56	-65	-27	-49	-59.2047866313025963336	-55.9165751256287890669	-33.2368861529747263717	-49.7859827219667678833
5.0.14.0	win	042919	14:10:26	007	1	game	3	selection	113	1	29	29	0	slot3	470	470	3	1	3	-27	-46	-67	-27	-61	-966	-33	1	3	-65	-47	-33	-45	-60.1070758645161333789	-50.9525688943739538672	-34.9411665929683650234	-50.5503915176095901529
5.0.14.0	win	042919	14:10:26	007	1	game	3	iti	116	1	29	29	0	0	2000	470	3	1	3	-33	-46	-67	-33	-61	-966	-33	1	3	-65	-47	-33	-45	-60.1070758645161333789	-50.9525688943739538672	-34.9411665929683650234	-50.5503915176095901529
5.0.14.0	win	042919	14:10:26	007	1	game	3	selection	117	1	30	30	0	slot3	497	497	3	1	3	-33	-46	-67	-33	-61	-1004	-38	1	3	-67	-47	-38	-43	-64.0220125888992015462	-48.4551278264949232266	-37.499746539583675542	-49.1099638774705908872
5.0.14.0	win	042919	14:10:26	007	1	game	3	iti	120	1	30	30	0	0	2000	497	3	1	3	-38	-46	-67	-38	-61	-1004	-38	1	3	-67	-47	-38	-43	-64.0220125888992015462	-48.4551278264949232266	-37.499746539583675542	-49.1099638774705908872
5.0.14.0	win	042919	14:10:26	007	1	game	3	selection	121	1	31	31	0	slot3	378	378	3	1	3	-38	-46	-67	-38	-61	-1035	-31	1	3	-60	-51	-31	-42	-60.4666587788767770917	-51.0168812335949439785	-36.6648109624960056863	-48.0131099478733247565
5.0.14.0	win	042919	14:10:26	007	1	game	3	iti	124	1	31	31	0	0	2000	378	3	1	3	-31	-46	-67	-31	-61	-1035	-31	1	3	-60	-51	-31	-42	-60.4666587788767770917	-51.0168812335949439785	-36.6648109624960056863	-48.0131099478733247565
5.0.14.0	win	042919	14:10:26	007	1	game	3	selection	125	1	32	32	0	slot3	231	231	3	1	3	-31	-46	-67	-31	-61	-1069	-34	1	3	-64	-51	-34	-55	-58.2429734708477369054	-52.8040291575414642011	-35.9294818926338592746	-47.8238338660276554037
5.0.14.0	win	042919	14:10:26	007	1	game	3	iti	128	1	32	32	0	0	2000	231	3	1	3	-34	-46	-67	-34	-61	-1069	-34	1	3	-64	-51	-34	-55	-58.2429734708477369054	-52.8040291575414642011	-35.9294818926338592746	-47.8238338660276554037
5.0.14.0	win	042919	14:10:26	007	1	game	3	selection	129	1	33	33	0	slot3	389	389	3	1	3	-34	-46	-67	-34	-61	-1095	-26	1	3	-62	-57	-26	-52	-58.527572967214240407	-54.1990825062847676463	-35.8234122908634873284	-50.3980811226758191879
5.0.14.0	win	042919	14:10:26	007	1	game	3	iti	132	1	33	33	0	0	2000	389	3	1	3	-26	-46	-67	-26	-61	-1095	-26	1	3	-62	-57	-26	-52	-58.527572967214240407	-54.1990825062847676463	-35.8234122908634873284	-50.3980811226758191879
5.0.14.0	win	042919	14:10:26	007	1	game	3	selection	133	1	34	34	0	slot3	330	330	3	1	3	-26	-46	-67	-26	-61	-1125	-30	1	3	-58	-48	-30	-56	-61.0317417865905795793	-53.2916755019324170917	-33.6170773126666162511	-50.6408289339022061881
5.0.14.0	win	042919	14:10:26	007	1	game	3	iti	136	1	34	34	0	0	2000	330	3	1	3	-30	-46	-67	-30	-61	-1125	-30	1	3	-58	-48	-30	-56	-61.0317417865905795793	-53.2916755019324170917	-33.6170773126666162511	-50.6408289339022061881
5.0.14.0	win	042919	14:10:26	007	1	game	3	selection	137	1	35	35	0	slot3	394	394	3	1	3	-30	-46	-67	-30	-61	-1165	-40	1	3	-55	-50	-40	-58	-58.0104668763864310677	-53.6563487463338617545	-33.4869803584385579143	-53.4364007027954883711
5.0.14.0	win	042919	14:10:26	007	1	game	3	iti	140	1	35	35	0	0	2000	394	3	1	3	-40	-46	-67	-40	-61	-1165	-40	1	3	-55	-50	-40	-58	-58.0104668763864310677	-53.6563487463338617545	-33.4869803584385579143	-53.4364007027954883711
5.0.14.0	win	042919	14:10:26	007	1	game	3	selection	141	1	36	36	0	slot3	541	541	3	1	3	-40	-46	-67	-40	-61	-1204	-39	1	3	-65	-53	-39	-56	-58.1889384629077284217	-56.5519070407453554594	-34.0698817054680205274	-53.4663021647986980156
5.0.14.0	win	042919	14:10:26	007	1	game	3	iti	144	1	36	36	0	0	2000	541	3	1	3	-39	-46	-67	-39	-61	-1204	-39	1	3	-65	-53	-39	-56	-58.1889384629077284217	-56.5519070407453554594	-34.0698817054680205274	-53.4663021647986980156
5.0.14.0	win	042919	14:10:26	007	1	game	3	selection	145	1	37	37	0	slot3	482	482	3	1	3	-39	-46	-67	-39	-61	-1239	-35	1	3	-62	-60	-35	-52	-62.4443787726580339381	-57.5494610418530569973	-33.2102215516112195814	-55.1779197362306703667
5.0.14.0	win	042919	14:10:26	007	1	game	3	iti	148	1	37	37	0	0	2000	482	3	1	3	-35	-46	-67	-35	-61	-1239	-35	1	3	-62	-60	-35	-52	-62.4443787726580339381	-57.5494610418530569973	-33.2102215516112195814	-55.1779197362306703667
5.0.14.0	win	042919	14:10:26	007	1	game	3	selection	149	1	38	38	0	slot3	420	420	3	1	3	-35	-46	-67	-35	-61	-1274	-35	1	3	-61	-45	-35	-50	-58.8416151077451345941	-57.4304251120898570093	-35.4640375581342368605	-48.7772638008829133582
5.0.14.0	win	042919	14:10:26	007	1	game	3	iti	152	1	38	38	0	0	2000	420	3	1	3	-35	-46	-67	-35	-61	-1274	-35	1	3	-61	-45	-35	-50	-58.8416151077451345941	-57.4304251120898570093	-35.4640375581342368605	-48.7772638008829133582
5.0.14.0	win	042919	14:10:26	007	1	game	3	selection	153	1	39	39	0	slot3	570	570	3	1	3	-35	-46	-67	-35	-61	-1309	-35	1	3	-66	-60	-35	-46	-62.4754332332943391748	-58.6582422704450507922	-33.2679424180532237187	-45.5725398814746966991
5.0.14.0	win	042919	14:10:26	007	1	game	3	iti	156	1	39	39	0	0	2000	570	3	1	3	-35	-46	-67	-35	-61	-1309	-35	1	3	-66	-60	-35	-46	-62.4754332332943391748	-58.6582422704450507922	-33.2679424180532237187	-45.5725398814746966991
5.0.14.0	win	042919	14:10:26	007	1	game	3	selection	157	1	40	40	0	slot3	600	600	3	1	3	-35	-46	-67	-35	-61	-1350	-41	1	3	-67	-54	-41	-46	-61.1970758749093590723	-57.036792470962865309	-34.1320473965296145025	-43.1549688467937855307
5.0.14.0	win	042919	14:10:26	007	1	game	3	iti	160	1	40	40	0	0	2000	600	3	1	3	-41	-46	-67	-41	-61	-1350	-41	1	3	-67	-54	-41	-46	-61.1970758749093590723	-57.036792470962865309	-34.1320473965296145025	-43.1549688467937855307
5.0.14.0	win	042919	14:10:26	007	1	game	3	selection	161	1	41	41	0	slot1	546	546	1	2	3	-41	-46	-67	-41	-61	-1411	-61	2	3	-61	-56	-31	-46	-57.3525147553984950832	-56.5342162228459343964	-32.5067643344388912396	-43.1559069594712170215
5.0.14.0	win	042919	14:10:26	007	1	game	3	iti	164	1	41	41	0	0	2000	546	1	2	3	-41	-61	-67	-41	-61	-1411	-61	2	3	-61	-56	-31	-46	-57.3525147553984950832	-56.5342162228459343964	-32.5067643344388912396	-43.1559069594712170215
5.0.14.0	win	042919	14:10:26	007	1	game	3	selection	165	1	42	42	0	slot4	373	373	4	2	3	-41	-61	-67	-41	-61	-1454	-43	2	3	-63	-60	-29	-43	-63.1572706489432746935	-55.3774507219577216688	-34.5725452500526273525	-42.714177634713657028
5.0.14.0	win	042919	14:10:26	007	1	game	3	iti	168	1	42	42	0	0	2000	373	4	2	3	-41	-61	-67	-41	-43	-1454	-43	2	3	-63	-60	-29	-43	-63.1572706489432746935	-55.3774507219577216688	-34.5725452500526273525	-42.714177634713657028
5.0.14.0	win	042919	14:10:26	007	1	game	3	selection	169	1	43	43	0	slot2	28	28	2	2	3	-41	-61	-67	-41	-43	-1521	-67	2	3	-61	-67	-37	-45	-61.7256756017269125891	-56.8876533681253420127	-30.6443867145647743655	-48.5584276516622423969
5.0.14.0	win	042919	14:10:26	007	1	game	3	iti	172	1	43	43	0	0	2000	28	2	2	3	-41	-61	-67	-41	-43	-1521	-67	2	3	-61	-67	-37	-45	-61.7256756017269125891	-56.8876533681253420127	-30.6443867145647743655	-48.5584276516622423969
5.0.14.0	win	042919	14:10:26	007	1	game	3	selection	173	1	44	44	0	slot3	437	437	3	1	3	-41	-61	-67	-41	-43	-1546	-25	1	3	-66	-56	-25	-47	-65.6705684994350633588	-57.1711269671225963407	-28.0883725447365826255	-50.0213598285214402495
5.0.14.0	win	042919	14:10:26	007	1	game	3	iti	176	1	44	44	0	0	2000	437	3	1	3	-25	-61	-67	-25	-43	-1546	-25	1	3	-66	-56	-25	-47	-65.6705684994350633588	-57.1711269671225963407	-28.0883725447365826255	-50.0213598285214402495
5.0.14.0	win	042919	14:10:26	007	1	game	3	selection	177	1	45	45	0	slot3	394	394	3	1	3	-25	-61	-67	-25	-43	-1571	-25	1	3	-74	-60	-25	-47	-70.3282310065307854074	-55.9104492802808650254	-26.4341120535136546721	-48.5613738676184141241
5.0.14.0	win	042919	14:10:26	007	1	game	3	iti	180	1	45	45	0	0	2000	394	3	1	3	-25	-61	-67	-25	-43	-1571	-25	1	3	-74	-60	-25	-47	-70.3282310065307854074	-55.9104492802808650254	-26.4341120535136546721	-48.5613738676184141241
5.0.14.0	win	042919	14:10:26	007	1	game	3	selection	181	1	46	46	0	slot3	289	289	3	1	3	-25	-61	-67	-25	-43	-1606	-35	1	3	-70	-62	-35	-50	-73.5137811164648837803	-62.0294375801546280513	-32.9122782538025475674	-52.7075872946361840832
5.0.14.0	win	042919	14:10:26	007	1	game	3	iti	184	1	46	46	0	0	2000	289	3	1	3	-35	-61	-67	-35	-43	-1606	-35	1	3	-70	-62	-35	-50	-73.5137811164648837803	-62.0294375801546280513	-32.9122782538025475674	-52.7075872946361840832
5.0.14.0	win	042919	14:10:26	007	1	game	3	selection	185	1	47	47	0	slot3	1132	1132	3	1	3	-35	-61	-67	-35	-43	-1641	-35	1	3	-72	-56	-35	-50	-70.4067653781655593548	-56.7804728907196576415	-33.9098895709215994998	-50.2538049760008576072
5.0.14.0	win	042919	14:10:26	007	1	game	3	iti	188	1	47	47	0	0	2000	1132	3	1	3	-35	-61	-67	-35	-43	-1641	-35	1	3	-72	-56	-35	-50	-70.4067653781655593548	-56.7804728907196576415	-33.9098895709215994998	-50.2538049760008576072
5.0.14.0	win	042919	14:10:26	007	1	game	3	selection	189	1	48	48	0	slot3	908	908	3	1	3	-35	-61	-67	-35	-43	-1678	-37	1	3	-64	-60	-37	-43	-68.0890023223162046406	-60.5237128495146663454	-35.0323270058861595544	-47.5592116598855696452
5.0.14.0	win	042919	14:10:26	007	1	game	3	iti	192	1	48	48	0	0	2000	908	3	1	3	-37	-61	-67	-37	-43	-1678	-37	1	3	-64	-60	-37	-43	-68.0890023223162046406	-60.5237128495146663454	-35.0323270058861595544	-47.5592116598855696452
5.0.14.0	win	042919	14:10:26	007	1	game	3	selection	193	1	49	49	0	slot3	419	419	3	1	3	-37	-61	-67	-37	-43	-1715	-37	1	3	-78	-61	-37	-50	-71.5592482798773659169	-59.2877252408064450151	-32.8153898090787308206	-48.0576811132453727282
5.0.14.0	win	042919	14:10:26	007	1	game	3	iti	196	1	49	49	0	0	2000	419	3	1	3	-37	-61	-67	-37	-43	-1715	-37	1	3	-78	-61	-37	-50	-71.5592482798773659169	-59.2877252408064450151	-32.8153898090787308206	-48.0576811132453727282
5.0.14.0	win	042919	14:10:26	007	1	game	3	selection	197	1	50	50	0	slot3	427	427	3	1	3	-37	-61	-67	-37	-43	-1745	-30	1	3	-69	-58	-30	-54	-68.8175529122270859261	-58.6306313994085428476	-34.0599411932153302018	-46.4863208818151818491
5.0.14.0	win	042919	14:10:26	007	1	game	3	iti	200	1	50	50	0	0	2000	427	3	1	3	-30	-61	-67	-30	-43	-1745	-30	1	3	-69	-58	-30	-54	-68.8175529122270859261	-58.6306313994085428476	-34.0599411932153302018	-46.4863208818151818491
5.0.14.0	win	042919	14:10:26	007	1	game	3	selection	201	1	51	51	0	slot3	515	515	3	1	3	-30	-61	-67	-30	-43	-1774	-29	1	3	-70	-55	-29	-49	-68.161388456423082971	-61.2565262568314921054	-26.1703860938027119687	-42.7849591764019479001
5.0.14.0	win	042919	14:10:26	007	1	game	3	iti	204	1	51	51	0	0	2000	515	3	1	3	-29	-61	-67	-29	-43	-1774	-29	1	3	-70	-55	-29	-49	-68.161388456423082971	-61.2565262568314921054	-26.1703860938027119687	-42.7849591764019479001
5.0.14.0	win	042919	14:10:26	007	1	game	3	selection	205	1	52	52	0	slot3	5	5	3	1	3	-29	-61	-67	-29	-43	-1796	-22	1	3	-69	-55	-22	-46	-69.326867292888891825	-62.1352722930973087045	-26.1079155110455047861	-46.0679458324380632916
5.0.14.0	win	042919	14:10:26	007	1	game	3	iti	208	1	52	52	0	0	2000	5	3	1	3	-22	-61	-67	-22	-43	-1796	-22	1	3	-69	-55	-22	-46	-69.326867292888891825	-62.1352722930973087045	-26.1079155110455047861	-46.0679458324380632916
5.0.14.0	win	042919	14:10:26	007	1	game	3	selection	209	1	53	53	0	slot3	345	345	3	1	3	-22	-61	-67	-22	-43	-1823	-27	1	3	-68	-61	-27	-47	-73.2595477012490903235	-60.9675064318444057676	-27.2112090273386684203	-45.9335483673397177995
5.0.14.0	win	042919	14:10:26	007	1	game	3	iti	212	1	53	53	0	0	2000	345	3	1	3	-27	-61	-67	-27	-43	-1823	-27	1	3	-68	-61	-27	-47	-73.2595477012490903235	-60.9675064318444057676	-27.2112090273386684203	-45.9335483673397177995
5.0.14.0	win	042919	14:10:26	007	1	game	3	selection	213	1	54	54	0	slot3	301	301	3	1	3	-27	-61	-67	-27	-43	-1849	-26	1	3	-73	-68	-26	-49	-69.1796804332208523647	-63.4394354538178930625	-24.3057873693515453795	-45.2132603924389115946
5.0.14.0	win	042919	14:10:26	007	1	game	3	iti	216	1	54	54	0	0	2000	301	3	1	3	-26	-61	-67	-26	-43	-1849	-26	1	3	-73	-68	-26	-49	-69.1796804332208523647	-63.4394354538178930625	-24.3057873693515453795	-45.2132603924389115946
5.0.14.0	win	042919	14:10:26	007	1	game	3	selection	217	1	55	55	0	slot3	1375	1375	3	1	3	-26	-61	-67	-26	-43	-1880	-31	1	3	-67	-62	-31	-49	-67.5888688924200806696	-65.359196417589913608	-25.9724619548169322059	-46.9481663583707202747
5.0.14.0	win	042919	14:10:26	007	1	game	3	iti	220	1	55	55	0	0	2000	1375	3	1	3	-31	-61	-67	-31	-43	-1880	-31	1	3	-67	-62	-31	-49	-67.5888688924200806696	-65.359196417589913608	-25.9724619548169322059	-46.9481663583707202747
5.0.14.0	win	042919	14:10:26	007	1	game	3	selection	221	1	56	56	0	slot3	352	352	3	1	3	-31	-61	-67	-31	-43	-1908	-28	1	3	-70	-61	-28	-57	-63.4433619849122081291	-63.9907756104280522891	-24.3091147015965276523	-51.2269391942594154443
5.0.14.0	win	042919	14:10:26	007	1	game	3	iti	224	1	56	56	0	0	2000	352	3	1	3	-28	-61	-67	-28	-43	-1908	-28	1	3	-70	-61	-28	-57	-63.4433619849122081291	-63.9907756104280522891	-24.3091147015965276523	-51.2269391942594154443
5.0.14.0	win	042919	14:10:26	007	1	game	3	selection	225	1	57	57	0	slot3	512	512	3	1	3	-28	-61	-67	-28	-43	-1932	-24	1	3	-65	-64	-24	-60	-62.406274145583992663	-63.8250023074742216522	-24.5841962019666091521	-54.8494302799780015789
5.0.14.0	win	042919	14:10:26	007	1	game	3	iti	228	1	57	57	0	0	2000	512	3	1	3	-24	-61	-67	-24	-43	-1932	-24	1	3	-65	-64	-24	-60	-62.406274145583992663	-63.8250023074742216522	-24.5841962019666091521	-54.8494302799780015789
5.0.14.0	win	042919	14:10:26	007	1	game	3	selection	229	1	58	58	0	slot3	1159	1159	3	1	3	-24	-61	-67	-24	-43	-1957	-25	1	3	-67	-60	-25	-54	-64.189593444448775017	-59.3500805658644381424	-26.0735345781666438825	-53.269884752574185427
5.0.14.0	win	042919	14:10:26	007	1	game	3	iti	232	1	58	58	0	0	2000	1159	3	1	3	-25	-61	-67	-25	-43	-1957	-25	1	3	-67	-60	-25	-54	-64.189593444448775017	-59.3500805658644381424	-26.0735345781666438825	-53.269884752574185427
5.0.14.0	win	042919	14:10:26	007	1	game	3	selection	233	1	59	59	0	slot3	232	232	3	1	3	-25	-61	-67	-25	-43	-1979	-22	1	3	-72	-60	-22	-49	-73.6811880251229354144	-61.1549445291581790229	-21.7855609514489785283	-54.3284621429366438861
5.0.14.0	win	042919	14:10:26	007	1	game	3	iti	236	1	59	59	0	0	2000	232	3	1	3	-22	-61	-67	-22	-43	-1979	-22	1	3	-72	-60	-22	-49	-73.6811880251229354144	-61.1549445291581790229	-21.7855609514489785283	-54.3284621429366438861
5.0.14.0	win	042919	14:10:26	007	1	game	3	selection	237	1	60	60	0	slot3	771	771	3	1	3	-22	-61	-67	-22	-43	-2004	-25	1	3	-69	-66	-25	-55	-72.8273892020102380229	-63.3398712451746064289	-21.8304129735270144863	-54.7705760732844595395
5.0.14.0	win	042919	14:10:26	007	1	game	3	iti	240	1	60	60	0	0	2000	771	3	1	3	-25	-61	-67	-25	-43	-2004	-25	1	3	-69	-66	-25	-55	-72.8273892020102380229	-63.3398712451746064289	-21.8304129735270144863	-54.7705760732844595395
5.0.14.0	win	042919	14:10:26	007	1	game	3	selection	241	1	61	61	0	slot3	535	535	3	1	3	-25	-61	-67	-25	-43	-2028	-24	1	3	-72	-61	-24	-54	-70.4458352134893175389	-63.007563710530845924	-20.9092848716393184816	-55.2519832058407516229
5.0.14.0	win	042919	14:10:26	007	1	game	3	iti	244	1	61	61	0	0	2000	535	3	1	3	-24	-61	-67	-24	-43	-2028	-24	1	3	-72	-61	-24	-54	-70.4458352134893175389	-63.007563710530845924	-20.9092848716393184816	-55.2519832058407516229
5.0.14.0	win	042919	14:10:26	007	1	game	3	selection	245	1	62	62	0	slot3	423	423	3	1	3	-24	-61	-67	-24	-43	-2048	-20	1	3	-65	-61	-20	-56	-69.0798930538663995549	-60.0573009592703215276	-17.8901406736993138225	-56.1622056610651512187
5.0.14.0	win	042919	14:10:26	007	1	game	3	iti	248	1	62	62	0	0	2000	423	3	1	3	-20	-61	-67	-20	-43	-2048	-20	1	3	-65	-61	-20	-56	-69.0798930538663995549	-60.0573009592703215276	-17.8901406736993138225	-56.1622056610651512187
5.0.14.0	win	042919	14:10:26	007	1	game	3	selection	249	1	63	63	0	slot3	597	597	3	1	3	-20	-61	-67	-20	-43	-2066	-18	1	3	-62	-63	-18	-59	-64.8547298659989479575	-59.1327297310460053836	-18.8233464494290636537	-56.6492080701005491505
5.0.14.0	win	042919	14:10:26	007	1	game	3	iti	252	1	63	63	0	0	2000	597	3	1	3	-18	-61	-67	-18	-43	-2066	-18	1	3	-62	-63	-18	-59	-64.8547298659989479575	-59.1327297310460053836	-18.8233464494290636537	-56.6492080701005491505
5.0.14.0	win	042919	14:10:26	007	1	game	3	selection	253	1	64	64	0	slot3	238	238	3	1	3	-18	-61	-67	-18	-43	-2092	-26	1	3	-67	-55	-26	-51	-68.5861064101540449656	-57.374484126224622571	-24.9350810499679447219	-54.2606005129934629849
5.0.14.0	win	042919	14:10:26	007	1	game	3	iti	256	1	64	64	0	0	2000	238	3	1	3	-26	-61	-67	-26	-43	-2092	-26	1	3	-67	-55	-26	-51	-68.5861064101540449656	-57.374484126224622571	-24.9350810499679447219	-54.2606005129934629849
5.0.14.0	win	042919	14:10:26	007	1	game	3	selection	257	1	65	65	0	slot3	208	208	3	1	3	-26	-61	-67	-26	-43	-2126	-34	1	3	-68	-57	-34	-47	-71.3401781792408797855	-56.9048029661781313848	-28.7376587826726890285	-51.0888429175144906935
5.0.14.0	win	042919	14:10:26	007	1	game	3	iti	260	1	65	65	0	0	2000	208	3	1	3	-34	-61	-67	-34	-43	-2126	-34	1	3	-68	-57	-34	-47	-71.3401781792408797855	-56.9048029661781313848	-28.7376587826726890285	-51.0888429175144906935
5.0.14.0	win	042919	14:10:26	007	1	game	3	selection	261	1	66	66	0	slot3	316	316	3	1	3	-34	-61	-67	-34	-43	-2148	-22	1	3	-63	-56	-22	-51	-72.3647997729121641441	-55.7849570000026844241	-27.3259670222875001855	-51.1590773038119408511
5.0.14.0	win	042919	14:10:26	007	1	game	3	iti	264	1	66	66	0	0	2000	316	3	1	3	-22	-61	-67	-22	-43	-2148	-22	1	3	-63	-56	-22	-51	-72.3647997729121641441	-55.7849570000026844241	-27.3259670222875001855	-51.1590773038119408511
5.0.14.0	win	042919	14:10:26	007	1	game	3	selection	265	1	67	67	0	slot3	418	418	3	1	3	-22	-61	-67	-22	-43	-2178	-30	1	3	-70	-58	-30	-50	-72.515471102712936613	-57.2339685931769253102	-26.3987311821491168473	-53.2581922927314934668
5.0.14.0	win	042919	14:10:26	007	1	game	3	iti	268	1	67	67	0	0	2000	418	3	1	3	-30	-61	-67	-30	-43	-2178	-30	1	3	-70	-58	-30	-50	-72.515471102712936613	-57.2339685931769253102	-26.3987311821491168473	-53.2581922927314934668
5.0.14.0	win	042919	14:10:26	007	1	game	3	selection	269	1	68	68	0	slot4	265	265	4	2	3	-30	-61	-67	-30	-43	-2229	-51	2	3	-77	-59	-27	-51	-78.2370652630301748331	-60.1335817685958531342	-23.5374790487901250913	-53.1576591068605495138
5.0.14.0	win	042919	14:10:26	007	1	game	3	iti	272	1	68	68	0	0	2000	265	4	2	3	-30	-61	-67	-30	-51	-2229	-51	2	3	-77	-59	-27	-51	-78.2370652630301748331	-60.1335817685958531342	-23.5374790487901250913	-53.1576591068605495138
5.0.14.0	win	042919	14:10:26	007	1	game	3	selection	273	1	69	69	0	slot1	287	287	1	2	3	-30	-61	-67	-30	-51	-2306	-77	2	3	-77	-62	-18	-64	-77.7951697233663850284	-61.6329424048444849404	-19.7040914464389835814	-57.3668888277138293574
5.0.14.0	win	042919	14:10:26	007	1	game	3	iti	276	1	69	69	0	0	2000	287	1	2	3	-30	-77	-67	-30	-51	-2306	-77	2	3	-77	-62	-18	-64	-77.7951697233663850284	-61.6329424048444849404	-19.7040914464389835814	-57.3668888277138293574
5.0.14.0	win	042919	14:10:26	007	1	game	3	selection	277	1	70	70	0	slot2	252	252	2	2	3	-30	-77	-67	-30	-51	-2367	-61	2	3	-75	-61	-13	-62	-76.9112801228707780865	-61.6940739463160383593	-19.0708737077433525542	-59.2342290653387948396
5.0.14.0	win	042919	14:10:26	007	1	game	3	iti	280	1	70	70	0	0	2000	252	2	2	3	-30	-77	-61	-30	-51	-2367	-61	2	3	-75	-61	-13	-62	-76.9112801228707780865	-61.6940739463160383593	-19.0708737077433525542	-59.2342290653387948396
5.0.14.0	win	042919	14:10:26	007	1	game	3	selection	281	1	71	71	0	slot4	337	337	4	2	3	-30	-77	-61	-30	-51	-2425	-58	2	3	-75	-66	-16	-58	-71.5157605078363332041	-68.4962140984604559435	-16.5004752389796216505	-62.3271680751345797944
5.0.14.0	win	042919	14:10:26	007	1	game	3	iti	284	1	71	71	0	0	2000	337	4	2	3	-30	-77	-61	-30	-58	-2425	-58	2	3	-75	-66	-16	-58	-71.5157605078363332041	-68.4962140984604559435	-16.5004752389796216505	-62.3271680751345797944
5.0.14.0	win	042919	14:10:26	007	1	game	3	selection	285	1	72	72	0	slot3	524	524	3	1	3	-30	-77	-61	-30	-58	-2439	-14	1	3	-64	-65	-14	-59	-68.7585368033027322099	-68.7492298277348083957	-15.7174271832941627736	-63.676346813780419609
5.0.14.0	win	042919	14:10:26	007	1	game	3	iti	288	1	72	72	0	0	2000	524	3	1	3	-14	-77	-61	-14	-58	-2439	-14	1	3	-64	-65	-14	-59	-68.7585368033027322099	-68.7492298277348083957	-15.7174271832941627736	-63.676346813780419609
5.0.14.0	win	042919	14:10:26	007	1	game	3	selection	289	1	73	73	0	slot3	368	368	3	1	3	-14	-77	-61	-14	-58	-2459	-20	1	3	-61	-82	-20	-66	-67.64081857537739495	-73.1795378310284263534	-22.7601342872680802998	-66.5140496604666395797
5.0.14.0	win	042919	14:10:26	007	1	game	3	iti	292	1	73	73	0	0	2000	368	3	1	3	-20	-77	-61	-20	-58	-2459	-20	1	3	-61	-82	-20	-66	-67.64081857537739495	-73.1795378310284263534	-22.7601342872680802998	-66.5140496604666395797
5.0.14.0	win	042919	14:10:26	007	1	game	3	selection	293	1	74	74	0	slot3	319	319	3	1	3	-20	-77	-61	-20	-58	-2479	-20	1	3	-82	-72	-20	-69	-74.4819859614396335701	-71.0017577360653859841	-20.679824584973903967	-65.9063131050197910099
5.0.14.0	win	042919	14:10:26	007	1	game	3	iti	296	1	74	74	0	0	2000	319	3	1	3	-20	-77	-61	-20	-58	-2479	-20	1	3	-82	-72	-20	-69	-74.4819859614396335701	-71.0017577360653859841	-20.679824584973903967	-65.9063131050197910099
5.0.14.0	win	042919	14:10:26	007	1	game	3	selection	297	1	75	75	0	slot3	327	327	3	1	3	-20	-77	-61	-20	-58	-2498	-19	1	3	-66	-67	-19	-61	-67.4714105832832302667	-69.0136046825626010559	-20.8378694913066127015	-65.7721138198147627918
5.0.14.0	win	042919	14:10:26	007	1	game	3	iti	300	1	75	75	0	0	2000	327	3	1	3	-19	-77	-61	-19	-58	-2498	-19	1	3	-66	-67	-19	-61	-67.4714105832832302667	-69.0136046825626010559	-20.8378694913066127015	-65.7721138198147627918
5.0.14.0	win	042919	14:10:26	007	1	game	3	selection	301	1	76	76	0	slot3	454	454	3	1	3	-19	-77	-61	-19	-58	-2512	-14	1	3	-64	-65	-14	-60	-61.2854163290782381068	-68.6224423352781087715	-17.032875536120062776	-68.4471488513837584833
5.0.14.0	win	042919	14:10:26	007	1	game	3	iti	304	1	76	76	0	0	2000	454	3	1	3	-14	-77	-61	-14	-58	-2512	-14	1	3	-64	-65	-14	-60	-61.2854163290782381068	-68.6224423352781087715	-17.032875536120062776	-68.4471488513837584833
5.0.14.0	win	042919	14:10:26	007	1	game	3	selection	305	1	77	77	0	slot3	458	458	3	1	3	-14	-77	-61	-14	-58	-2532	-20	1	3	-62	-65	-20	-60	-63.9368379413958223267	-67.6011834835882723382	-18.7638787334033452225	-68.4075678216764657691
5.0.14.0	win	042919	14:10:26	007	1	game	3	iti	308	1	77	77	0	0	2000	458	3	1	3	-20	-77	-61	-20	-58	-2532	-20	1	3	-62	-65	-20	-60	-63.9368379413958223267	-67.6011834835882723382	-18.7638787334033452225	-68.4075678216764657691
5.0.14.0	win	042919	14:10:26	007	1	game	3	selection	309	1	78	78	0	slot3	337	337	3	1	3	-20	-77	-61	-20	-58	-2548	-16	1	3	-55	-57	-16	-70	-57.931910066189807651	-68.0455373974733674913	-18.7261032237599458483	-71.3784626007945774973
5.0.14.0	win	042919	14:10:26	007	1	game	3	iti	312	1	78	78	0	0	2000	337	3	1	3	-16	-77	-61	-16	-58	-2548	-16	1	3	-55	-57	-16	-70	-57.931910066189807651	-68.0455373974733674913	-18.7261032237599458483	-71.3784626007945774973
5.0.14.0	win	042919	14:10:26	007	1	game	3	selection	313	1	79	79	0	slot3	464	464	3	1	3	-16	-77	-61	-16	-58	-2563	-15	1	3	-58	-69	-15	-64	-57.5253197715521054079	-69.7878042155294480153	-12.4840158175961875031	-69.7460651510888425264
5.0.14.0	win	042919	14:10:26	007	1	game	3	iti	316	1	79	79	0	0	2000	464	3	1	3	-15	-77	-61	-15	-58	-2563	-15	1	3	-58	-69	-15	-64	-57.5253197715521054079	-69.7878042155294480153	-12.4840158175961875031	-69.7460651510888425264
5.0.14.0	win	042919	14:10:26	007	1	game	3	selection	317	1	80	80	0	slot3	966	966	3	1	3	-15	-77	-61	-15	-58	-2585	-22	1	3	-51	-67	-22	-70	-55.5710076894964686289	-70.8437928900128213172	-17.7831386308356762527	-70.9794138700256240782
5.0.14.0	win	042919	14:10:26	007	1	game	3	iti	320	1	80	80	0	0	2000	966	3	1	3	-22	-77	-61	-22	-58	-2585	-22	1	3	-51	-67	-22	-70	-55.5710076894964686289	-70.8437928900128213172	-17.7831386308356762527	-70.9794138700256240782
5.0.14.0	win	042919	14:10:26	007	1	game	3	selection	321	1	81	81	0	slot3	533	533	3	1	3	-22	-77	-61	-22	-58	-2601	-16	1	3	-56	-71	-16	-74	-53.7915926556155667981	-70.2069995183029789132	-17.3504798797338040117	-71.0685650041382785957
5.0.14.0	win	042919	14:10:26	007	1	game	3	iti	324	1	81	81	0	0	2000	533	3	1	3	-16	-77	-61	-16	-58	-2601	-16	1	3	-56	-71	-16	-74	-53.7915926556155667981	-70.2069995183029789132	-17.3504798797338040117	-71.0685650041382785957
5.0.14.0	win	042919	14:10:26	007	1	game	3	selection	325	1	82	82	0	slot3	553	553	3	1	3	-16	-77	-61	-16	-58	-2612	-11	1	3	-51	-61	-11	-69	-54.1893841789506538476	-67.6448730744408095461	-13.5037992310008920782	-71.8000956173185898024
5.0.14.0	win	042919	14:10:26	007	1	game	3	iti	328	1	82	82	0	0	2000	553	3	1	3	-11	-77	-61	-11	-58	-2612	-11	1	3	-51	-61	-11	-69	-54.1893841789506538476	-67.6448730744408095461	-13.5037992310008920782	-71.8000956173185898024
5.0.14.0	win	042919	14:10:26	007	1	game	3	selection	329	1	83	83	0	slot3	478	478	3	1	3	-11	-77	-61	-11	-58	-2617	-5	1	3	-50	-75	-5	-71	-47.7812341172429668745	-72.163937694982749349	-17.1871911709661695511	-71.3702449308119355464
5.0.14.0	win	042919	14:10:26	007	1	game	3	iti	332	1	83	83	0	0	2000	478	3	1	3	-5	-77	-61	-5	-58	-2617	-5	1	3	-50	-75	-5	-71	-47.7812341172429668745	-72.163937694982749349	-17.1871911709661695511	-71.3702449308119355464
5.0.14.0	win	042919	14:10:26	007	1	game	3	selection	333	1	84	84	0	slot3	329	329	3	1	3	-5	-77	-61	-5	-58	-2636	-19	1	3	-46	-67	-19	-63	-48.4753978004074497221	-70.3640469156629961844	-18.1570657386470273309	-71.2919300670405959863
5.0.14.0	win	042919	14:10:26	007	1	game	3	iti	336	1	84	84	0	0	2000	329	3	1	3	-19	-77	-61	-19	-58	-2636	-19	1	3	-46	-67	-19	-63	-48.4753978004074497221	-70.3640469156629961844	-18.1570657386470273309	-71.2919300670405959863
5.0.14.0	win	042919	14:10:26	007	1	game	3	selection	337	1	85	85	0	slot3	443	443	3	1	3	-19	-77	-61	-19	-58	-2661	-25	1	3	-41	-59	-25	-72	-45.8187451355151083021	-70.0203342781861834965	-22.6659084023519525886	-73.5690256535352062883
5.0.14.0	win	042919	14:10:26	007	1	game	3	iti	340	1	85	85	0	0	2000	443	3	1	3	-25	-77	-61	-25	-58	-2661	-25	1	3	-41	-59	-25	-72	-45.8187451355151083021	-70.0203342781861834965	-22.6659084023519525886	-73.5690256535352062883
5.0.14.0	win	042919	14:10:26	007	1	game	3	selection	341	1	86	86	0	slot3	545	545	3	1	3	-25	-77	-61	-25	-58	-2683	-22	1	3	-55	-69	-22	-75	-47.5159454495502231453	-74.4642846041831631965	-21.3830874793948630952	-76.7316066042282614035
5.0.14.0	win	042919	14:10:26	007	1	game	3	iti	344	1	86	86	0	0	2000	545	3	1	3	-22	-77	-61	-22	-58	-2683	-22	1	3	-55	-69	-22	-75	-47.5159454495502231453	-74.4642846041831631965	-21.3830874793948630952	-76.7316066042282614035
5.0.14.0	win	042919	14:10:26	007	1	game	3	selection	345	1	87	87	0	slot3	300	300	3	1	3	-22	-77	-61	-22	-58	-2709	-26	1	3	-51	-80	-26	-75	-49.0667795817241199074	-75.8107089219679153302	-22.3241623074829647067	-71.229950969449774334
5.0.14.0	win	042919	14:10:26	007	1	game	3	iti	348	1	87	87	0	0	2000	300	3	1	3	-26	-77	-61	-26	-58	-2709	-26	1	3	-51	-80	-26	-75	-49.0667795817241199074	-75.8107089219679153302	-22.3241623074829647067	-71.229950969449774334
5.0.14.0	win	042919	14:10:26	007	1	game	3	selection	349	1	88	88	0	slot3	710	710	3	1	3	-26	-77	-61	-26	-58	-2725	-16	1	3	-48	-67	-16	-77	-46.9285784314759837343	-75.3668196830620473747	-22.289066950522659738	-74.4230473301517463369
5.0.14.0	win	042919	14:10:26	007	1	game	3	iti	352	1	88	88	0	0	2000	710	3	1	3	-16	-77	-61	-16	-58	-2725	-16	1	3	-48	-67	-16	-77	-46.9285784314759837343	-75.3668196830620473747	-22.289066950522659738	-74.4230473301517463369
5.0.14.0	win	042919	14:10:26	007	1	game	3	selection	353	1	89	89	0	slot3	384	384	3	1	3	-16	-77	-61	-16	-58	-2749	-24	1	3	-46	-71	-24	-76	-42.4892934353946003512	-75.683750511608664624	-23.4409621326966686183	-76.7801030146491427786
5.0.14.0	win	042919	14:10:26	007	1	game	3	iti	356	1	89	89	0	0	2000	384	3	1	3	-24	-77	-61	-24	-58	-2749	-24	1	3	-46	-71	-24	-76	-42.4892934353946003512	-75.683750511608664624	-23.4409621326966686183	-76.7801030146491427786
5.0.14.0	win	042919	14:10:26	007	1	game	3	selection	357	1	90	90	0	slot3	511	511	3	1	3	-24	-77	-61	-24	-58	-2771	-22	1	3	-41	-82	-22	-71	-43.7225830908589898627	-77.6080707396258873132	-21.9051377017817472392	-77.3220887407722869966
5.0.14.0	win	042919	14:10:26	007	1	game	3	iti	360	1	90	90	0	0	2000	511	3	1	3	-22	-77	-61	-22	-58	-2771	-22	1	3	-41	-82	-22	-71	-43.7225830908589898627	-77.6080707396258873132	-21.9051377017817472392	-77.3220887407722869966
5.0.14.0	win	042919	14:10:26	007	1	game	3	selection	361	1	91	91	0	slot3	290	290	3	1	3	-22	-77	-61	-22	-58	-2788	-17	1	3	-47	-75	-17	-79	-46.7133971546062412017	-75.3226392420090888891	-21.6334418561860744035	-79.5829788810740552663
5.0.14.0	win	042919	14:10:26	007	1	game	3	iti	364	1	91	91	0	0	2000	290	3	1	3	-17	-77	-61	-17	-58	-2788	-17	1	3	-47	-75	-17	-79	-46.7133971546062412017	-75.3226392420090888891	-21.6334418561860744035	-79.5829788810740552663
5.0.14.0	win	042919	14:10:26	007	1	game	3	selection	365	1	92	92	0	slot3	687	687	3	1	3	-17	-77	-61	-17	-58	-2810	-22	1	3	-55	-70	-22	-78	-47.2462370670717319854	-72.8693213826794448096	-22.9841279129343973864	-76.2654580274889326574
5.0.14.0	win	042919	14:10:26	007	1	game	3	iti	368	1	92	92	0	0	2000	687	3	1	3	-22	-77	-61	-22	-58	-2810	-22	1	3	-55	-70	-22	-78	-47.2462370670717319854	-72.8693213826794448096	-22.9841279129343973864	-76.2654580274889326574
5.0.14.0	win	042919	14:10:26	007	1	game	3	selection	369	1	93	93	0	slot3	550	550	3	1	3	-22	-77	-61	-22	-58	-2837	-27	1	3	-45	-67	-27	-81	-49.0098720050269278659	-73.7508095643418499776	-25.521880514351018121	-79.8431146753506766345
5.0.14.0	win	042919	14:10:26	007	1	game	3	iti	372	1	93	93	0	0	2000	550	3	1	3	-27	-77	-61	-27	-58	-2837	-27	1	3	-45	-67	-27	-81	-49.0098720050269278659	-73.7508095643418499776	-25.521880514351018121	-79.8431146753506766345
5.0.14.0	win	042919	14:10:26	007	1	game	3	selection	373	1	94	94	0	slot3	587	587	3	1	3	-27	-77	-61	-27	-58	-2859	-22	1	3	-50	-79	-22	-73	-51.5660733110872513407	-76.8061404663763624967	-19.9449159712462140703	-77.557380477914151129
5.0.14.0	win	042919	14:10:26	007	1	game	3	iti	376	1	94	94	0	0	2000	587	3	1	3	-22	-77	-61	-22	-58	-2859	-22	1	3	-50	-79	-22	-73	-51.5660733110872513407	-76.8061404663763624967	-19.9449159712462140703	-77.557380477914151129
5.0.14.0	win	042919	14:10:26	007	1	game	3	selection	377	1	95	95	0	slot3	259	259	3	1	3	-22	-77	-61	-22	-58	-2875	-16	1	3	-48	-77	-16	-66	-51.4647193413450381172	-78.3547846096991520426	-18.3152966082294099692	-74.8982843367022610437
5.0.14.0	win	042919	14:10:26	007	1	game	3	iti	380	1	95	95	0	0	2000	259	3	1	3	-16	-77	-61	-16	-58	-2875	-16	1	3	-48	-77	-16	-66	-51.4647193413450381172	-78.3547846096991520426	-18.3152966082294099692	-74.8982843367022610437
5.0.14.0	win	042919	14:10:26	007	1	game	3	selection	381	1	96	96	0	slot3	368	368	3	1	3	-16	-77	-61	-16	-58	-2889	-14	1	3	-54	-64	-14	-75	-54.3597166390152040094	-72.9811368536483229263	-18.6544725074563082501	-74.3201523935433954193
5.0.14.0	win	042919	14:10:26	007	1	game	3	iti	384	1	96	96	0	0	2000	368	3	1	3	-14	-77	-61	-14	-58	-2889	-14	1	3	-54	-64	-14	-75	-54.3597166390152040094	-72.9811368536483229263	-18.6544725074563082501	-74.3201523935433954193
5.0.14.0	win	042919	14:10:26	007	1	game	3	selection	385	1	97	97	0	slot3	585	585	3	1	3	-14	-77	-61	-14	-58	-2907	-18	1	3	-55	-69	-18	-72	-50.971423830619301043	-66.5740430834455310105	-19.6651185980647476015	-72.4161724072573349531
5.0.14.0	win	042919	14:10:26	007	1	game	3	iti	388	1	97	97	0	0	2000	585	3	1	3	-18	-77	-61	-18	-58	-2907	-18	1	3	-55	-69	-18	-72	-50.971423830619301043	-66.5740430834455310105	-19.6651185980647476015	-72.4161724072573349531
5.0.14.0	win	042919	14:10:26	007	1	game	3	selection	389	1	98	98	0	slot3	806	806	3	1	3	-18	-77	-61	-18	-58	-2923	-16	1	3	-53	-65	-16	-75	-47.8275740852127455582	-69.1125386624281645709	-17.4413870984360350747	-68.4843885269546603922
5.0.14.0	win	042919	14:10:26	007	1	game	3	iti	392	1	98	98	0	0	2000	806	3	1	3	-16	-77	-61	-16	-58	-2923	-16	1	3	-53	-65	-16	-75	-47.8275740852127455582	-69.1125386624281645709	-17.4413870984360350747	-68.4843885269546603922
5.0.14.0	win	042919	14:10:26	007	1	game	3	selection	393	1	99	99	0	slot3	1353	1353	3	1	3	-16	-77	-61	-16	-58	-2938	-15	1	3	-40	-72	-15	-65	-44.653285565445436589	-69.9891293325773773404	-17.7131381139165284822	-69.2380080260451222784
5.0.14.0	win	042919	14:10:26	007	1	game	3	iti	396	1	99	99	0	0	2000	1353	3	1	3	-15	-77	-61	-15	-58	-2938	-15	1	3	-40	-72	-15	-65	-44.653285565445436589	-69.9891293325773773404	-17.7131381139165284822	-69.2380080260451222784
5.0.14.0	win	042919	14:10:26	007	1	game	3	selection	397	1	100	100	0	slot3	278	278	3	1	3	-15	-77	-61	-15	-58	-2957	-19	1	3	-46	-71	-19	-70	-48.2374453164843188802	-72.8828604640247448287	-12.7662264084262027097	-71.2507725876054109904
5.0.14.0	win	042919	14:10:26	007	1	game	3	iti	400	1	100	100	0	0	2000	278	3	1	3	-19	-77	-61	-19	-58	-2957	-19	1	3	-46	-71	-19	-70	-48.2374453164843188802	-72.8828604640247448287	-12.7662264084262027097	-71.2507725876054109904
5.0.14.0	win	042919	14:10:26	007	1	game	3	selection	401	1	101	101	0	slot3	396	396	3	1	3	-19	-77	-61	-19	-58	-2975	-18	1	3	-43	-76	-18	-70	-47.8154135879397230724	-71.8684062250622588408	-19.4303961990502358503	-75.0524198454157840388
5.0.14.0	win	042919	14:10:26	007	1	game	3	iti	404	1	101	101	0	0	2000	396	3	1	3	-18	-77	-61	-18	-58	-2975	-18	1	3	-43	-76	-18	-70	-47.8154135879397230724	-71.8684062250622588408	-19.4303961990502358503	-75.0524198454157840388
5.0.14.0	win	042919	14:10:26	007	1	game	3	selection	405	1	102	102	0	slot3	397	397	3	1	3	-18	-77	-61	-18	-58	-2995	-20	1	3	-50	-69	-20	-72	-48.1341916901550916918	-70.6934585501609547009	-20.6313584711677648897	-74.0136060692389747828
5.0.14.0	win	042919	14:10:26	007	1	game	3	iti	408	1	102	102	0	0	2000	397	3	1	3	-20	-77	-61	-20	-58	-2995	-20	1	3	-50	-69	-20	-72	-48.1341916901550916918	-70.6934585501609547009	-20.6313584711677648897	-74.0136060692389747828
5.0.14.0	win	042919	14:10:26	007	1	game	3	selection	409	1	103	103	0	slot3	505	505	3	1	3	-20	-77	-61	-20	-58	-3016	-21	1	3	-46	-72	-21	-73	-44.9230168127415225854	-70.5087278220764659409	-21.357038603599161064	-71.3918513186083032451
5.0.14.0	win	042919	14:10:26	007	1	game	3	iti	412	1	103	103	0	0	2000	505	3	1	3	-21	-77	-61	-21	-58	-3016	-21	1	3	-46	-72	-21	-73	-44.9230168127415225854	-70.5087278220764659409	-21.357038603599161064	-71.3918513186083032451
5.0.14.0	win	042919	14:10:26	007	1	game	3	selection	413	1	104	104	0	slot3	203	203	3	1	3	-21	-77	-61	-21	-58	-3037	-21	1	3	-51	-72	-21	-78	-49.7418883200004557921	-68.9481667157106414834	-22.4467964864241125156	-76.0552498929149436435
5.0.14.0	win	042919	14:10:26	007	1	game	3	iti	416	1	104	104	0	0	2000	203	3	1	3	-21	-77	-61	-21	-58	-3037	-21	1	3	-51	-72	-21	-78	-49.7418883200004557921	-68.9481667157106414834	-22.4467964864241125156	-76.0552498929149436435
5.0.14.0	win	042919	14:10:26	007	1	game	3	selection	417	1	105	105	0	slot3	296	296	3	1	3	-21	-77	-61	-21	-58	-3063	-26	1	3	-41	-74	-26	-78	-47.4330490057037437168	-69.7464502366114516008	-23.1886683029480522578	-77.6188324179415900517
5.0.14.0	win	042919	14:10:26	007	1	game	3	iti	420	1	105	105	0	0	2000	296	3	1	3	-26	-77	-61	-26	-58	-3063	-26	1	3	-41	-74	-26	-78	-47.4330490057037437168	-69.7464502366114516008	-23.1886683029480522578	-77.6188324179415900517
5.0.14.0	win	042919	14:10:26	007	1	game	3	selection	421	1	106	106	0	slot3	388	388	3	1	3	-26	-77	-61	-26	-58	-3089	-26	1	3	-46	-66	-26	-73	-45.5848453644967648302	-66.6096347295329422877	-24.0676194087829458113	-74.1935602148345481055
5.0.14.0	win	042919	14:10:26	007	1	game	3	iti	424	1	106	106	0	0	2000	388	3	1	3	-26	-77	-61	-26	-58	-3089	-26	1	3	-46	-66	-26	-73	-45.5848453644967648302	-66.6096347295329422877	-24.0676194087829458113	-74.1935602148345481055
5.0.14.0	win	042919	14:10:26	007	1	game	3	selection	425	1	107	107	0	slot4	1035	1035	4	2	3	-26	-77	-61	-26	-58	-3161	-72	2	3	-40	-65	-27	-72	-41.8626310669438694845	-66.9265397847982654866	-26.9726411334114466456	-75.4165142884732091488
5.0.14.0	win	042919	14:10:26	007	1	game	3	iti	428	1	107	107	0	0	2000	1035	4	2	3	-26	-77	-61	-26	-72	-3161	-72	2	3	-40	-65	-27	-72	-41.8626310669438694845	-66.9265397847982654866	-26.9726411334114466456	-75.4165142884732091488
5.0.14.0	win	042919	14:10:26	007	1	game	3	selection	429	1	108	108	0	slot3	426	426	3	1	3	-26	-77	-61	-26	-72	-3176	-15	1	3	-46	-73	-15	-77	-43.7958160616377654151	-67.265378404404060575	-24.2575264608928442556	-77.1353357707893110273
5.0.14.0	win	042919	14:10:26	007	1	game	3	iti	432	1	108	108	0	0	2000	426	3	1	3	-15	-77	-61	-15	-72	-3176	-15	1	3	-46	-73	-15	-77	-43.7958160616377654151	-67.265378404404060575	-24.2575264608928442556	-77.1353357707893110273
5.0.14.0	win	042919	14:10:26	007	1	game	3	selection	433	1	109	109	0	slot3	264	264	3	1	3	-15	-77	-61	-15	-72	-3205	-29	1	3	-41	-68	-29	-78	-42.1563140215850822301	-67.9426185633821404508	-25.3480595437836022654	-79.4592250847743883924
5.0.14.0	win	042919	14:10:26	007	1	game	3	iti	436	1	109	109	0	0	2000	264	3	1	3	-29	-77	-61	-29	-72	-3205	-29	1	3	-41	-68	-29	-78	-42.1563140215850822301	-67.9426185633821404508	-25.3480595437836022654	-79.4592250847743883924
5.0.14.0	win	042919	14:10:26	007	1	game	3	selection	437	1	110	110	0	slot3	333	333	3	1	3	-29	-77	-61	-29	-72	-3231	-26	1	3	-40	-59	-26	-75	-42.3545168016664987931	-64.9356634667979477626	-24.6697208568975305809	-75.401703256681912535
5.0.14.0	win	042919	14:10:26	007	1	game	3	iti	440	1	110	110	0	0	2000	333	3	1	3	-26	-77	-61	-26	-72	-3231	-26	1	3	-40	-59	-26	-75	-42.3545168016664987931	-64.9356634667979477626	-24.6697208568975305809	-75.401703256681912535
5.0.14.0	win	042919	14:10:26	007	1	game	3	selection	441	1	111	111	0	slot3	384	384	3	1	3	-26	-77	-61	-26	-72	-3254	-23	1	3	-47	-68	-23	-75	-46.462171802950997801	-64.9627434669754251217	-22.1574218517095076209	-76.5356880568283770572
5.0.14.0	win	042919	14:10:26	007	1	game	3	iti	444	1	111	111	0	0	2000	384	3	1	3	-23	-77	-61	-23	-72	-3254	-23	1	3	-47	-68	-23	-75	-46.462171802950997801	-64.9627434669754251217	-22.1574218517095076209	-76.5356880568283770572
5.0.14.0	win	042919	14:10:26	007	1	game	3	selection	445	1	112	112	0	slot3	595	595	3	1	3	-23	-77	-61	-23	-72	-3272	-18	1	3	-41	-63	-18	-71	-45.2416763881655015211	-65.0183966590650044282	-20.2532467149569583853	-71.4768175848585087806
5.0.14.0	win	042919	14:10:26	007	1	game	3	iti	448	1	112	112	0	0	2000	595	3	1	3	-18	-77	-61	-18	-72	-3272	-18	1	3	-41	-63	-18	-71	-45.2416763881655015211	-65.0183966590650044282	-20.2532467149569583853	-71.4768175848585087806
5.0.14.0	win	042919	14:10:26	007	1	game	3	selection	449	1	113	113	0	slot3	400	400	3	1	3	-18	-77	-61	-18	-72	-3288	-16	1	3	-55	-64	-16	-68	-49.933913826974489325	-60.3489712514163727519	-19.8189572531708506631	-71.4189601701568079761
5.0.14.0	win	042919	14:10:26	007	1	game	3	iti	452	1	113	113	0	0	2000	400	3	1	3	-16	-77	-61	-16	-72	-3288	-16	1	3	-55	-64	-16	-68	-49.933913826974489325	-60.3489712514163727519	-19.8189572531708506631	-71.4189601701568079761
5.0.14.0	win	042919	14:10:26	007	1	game	3	selection	453	1	114	114	0	slot3	501	501	3	1	3	-16	-77	-61	-16	-72	-3304	-16	1	3	-55	-53	-16	-70	-52.669039990906902915	-60.6018203747224077915	-13.8450702156361522555	-68.4912637105851018759
5.0.14.0	win	042919	14:10:26	007	1	game	3	iti	456	1	114	114	0	0	2000	501	3	1	3	-16	-77	-61	-16	-72	-3304	-16	1	3	-55	-53	-16	-70	-52.669039990906902915	-60.6018203747224077915	-13.8450702156361522555	-68.4912637105851018759
5.0.14.0	win	042919	14:10:26	007	1	game	3	selection	457	1	115	115	0	slot3	794	794	3	1	3	-16	-77	-61	-16	-72	-3320	-16	1	3	-51	-60	-16	-62	-53.1536310386194372768	-58.5414463873371531122	-11.1637335131861021864	-63.8621858144317045003
5.0.14.0	win	042919	14:10:26	007	1	game	3	iti	460	1	115	115	0	0	2000	794	3	1	3	-16	-77	-61	-16	-72	-3320	-16	1	3	-51	-60	-16	-62	-53.1536310386194372768	-58.5414463873371531122	-11.1637335131861021864	-63.8621858144317045003
5.0.14.0	win	042919	14:10:26	007	1	game	3	selection	461	1	116	116	0	slot3	820	820	3	1	3	-16	-77	-61	-16	-72	-3322	-2	1	3	-59	-52	-2	-61	-50.5021079340226322074	-56.7688633280119887559	-8.0546008594857063656	-61.8875455039876172236
5.0.14.0	win	042919	14:10:26	007	1	game	3	iti	464	1	116	116	0	0	2000	820	3	1	3	-2	-77	-61	-2	-72	-3322	-2	1	3	-59	-52	-2	-61	-50.5021079340226322074	-56.7688633280119887559	-8.0546008594857063656	-61.8875455039876172236
5.0.14.0	win	042919	14:10:26	007	1	game	3	selection	465	1	117	117	0	slot3	447	447	3	1	3	-2	-77	-61	-2	-72	-3333	-11	1	3	-57	-62	-11	-69	-52.5766076095246077671	-60.1671919652426652192	-10.2722042737442151861	-65.7130860107614154231
5.0.14.0	win	042919	14:10:26	007	1	game	3	iti	468	1	117	117	0	0	2000	447	3	1	3	-11	-77	-61	-11	-72	-3333	-11	1	3	-57	-62	-11	-69	-52.5766076095246077671	-60.1671919652426652192	-10.2722042737442151861	-65.7130860107614154231
5.0.14.0	win	042919	14:10:26	007	1	game	3	selection	469	1	118	118	0	slot3	498	498	3	1	3	-11	-77	-61	-11	-72	-3345	-12	1	3	-61	-71	-12	-65	-54.8939526978133756074	-64.3903314757920384181	-12.2514869997855200268	-66.2623238545012611667
5.0.14.0	win	042919	14:10:26	007	1	game	3	iti	472	1	118	118	0	0	2000	498	3	1	3	-12	-77	-61	-12	-72	-3345	-12	1	3	-61	-71	-12	-65	-54.8939526978133756074	-64.3903314757920384181	-12.2514869997855200268	-66.2623238545012611667
5.0.14.0	win	042919	14:10:26	007	1	game	3	selection	473	1	119	119	0	slot3	807	807	3	1	3	-12	-77	-61	-12	-72	-3351	-6	1	3	-51	-68	-6	-66	-51.5899796837461934729	-67.4173172692310345155	-12.7197494717096084571	-64.9680897437988136289
5.0.14.0	win	042919	14:10:26	007	1	game	3	iti	476	1	119	119	0	0	2000	807	3	1	3	-6	-77	-61	-6	-72	-3351	-6	1	3	-51	-68	-6	-66	-51.5899796837461934729	-67.4173172692310345155	-12.7197494717096084571	-64.9680897437988136289
5.0.14.0	win	042919	14:10:26	007	1	game	3	selection	477	1	120	120	0	slot3	272	272	3	1	3	-6	-77	-61	-6	-72	-3364	-13	1	3	-51	-66	-13	-61	-53.1450167022881245771	-63.6575816710828377154	-17.7818533178380278059	-67.2028584978403529249
5.0.14.0	win	042919	14:10:26	007	1	game	3	iti	480	1	120	120	0	0	2000	272	3	1	3	-13	-77	-61	-13	-72	-3364	-13	1	3	-51	-66	-13	-61	-53.1450167022881245771	-63.6575816710828377154	-17.7818533178380278059	-67.2028584978403529249
5.0.14.0	win	042919	14:10:26	007	1	game	3	selection	481	1	121	121	0	slot3	460	460	3	1	3	-13	-77	-61	-13	-72	-3386	-22	1	3	-61	-78	-22	-66	-58.6508234248260222898	-69.8582364867854579416	-19.1600169018256494269	-68.9157586306618696881
5.0.14.0	win	042919	14:10:26	007	1	game	3	iti	484	1	121	121	0	0	2000	460	3	1	3	-22	-77	-61	-22	-72	-3386	-22	1	3	-61	-78	-22	-66	-58.6508234248260222898	-69.8582364867854579416	-19.1600169018256494269	-68.9157586306618696881
5.0.14.0	win	042919	14:10:26	007	1	game	3	selection	485	1	122	122	1	0	1500	1500	0	0	3	-22	-77	-61	-22	-72	-3386	0	0	3	-64	-72	-24	-68	-59.9971429400399642873	-70.2244845451444774653	-18.9413007817011340705	-66.7217346825391501852
5.0.14.0	win	042919	14:10:26	007	1	game	3	iti	487	1	122	122	1	0	2000	1500	0	0	3	-22	-77	-61	-22	-72	-3386	0	0	3	-64	-72	-24	-68	-59.9971429400399642873	-70.2244845451444774653	-18.9413007817011340705	-66.7217346825391501852
5.0.14.0	win	042919	14:10:26	007	1	game	3	selection	488	1	123	123	1	slot3	150	150	3	1	3	-22	-77	-61	-22	-72	-3410	-24	1	3	-66	-84	-24	-65	-65.6735576495474049352	-75.4931864030204877736	-19.5433333327816853853	-65.8925162886022235398
5.0.14.0	win	042919	14:10:26	007	1	game	3	iti	491	1	123	123	1	0	2000	150	3	1	3	-24	-77	-61	-24	-72	-3410	-24	1	3	-66	-84	-24	-65	-65.6735576495474049352	-75.4931864030204877736	-19.5433333327816853853	-65.8925162886022235398
5.0.14.0	win	042919	14:10:26	007	1	game	3	selection	492	1	124	124	1	slot3	400	400	3	1	3	-24	-77	-61	-24	-72	-3423	-13	1	3	-69	-76	-13	-70	-70.0045544478098094032	-80.0261424768036562227	-16.6839272936425473404	-67.7543828614251140152
5.0.14.0	win	042919	14:10:26	007	1	game	3	iti	495	1	124	124	1	0	2000	400	3	1	3	-13	-77	-61	-13	-72	-3423	-13	1	3	-69	-76	-13	-70	-70.0045544478098094032	-80.0261424768036562227	-16.6839272936425473404	-67.7543828614251140152
5.0.14.0	win	042919	14:10:26	007	1	game	3	selection	496	1	125	125	1	slot3	339	339	3	1	3	-13	-77	-61	-13	-72	-3438	-15	1	3	-74	-87	-15	-67	-69.9384015291639826728	-83.8757435900274543883	-19.3473428428530240808	-69.592201828925098539
5.0.14.0	win	042919	14:10:26	007	1	game	3	iti	499	1	125	125	1	0	2000	339	3	1	3	-15	-77	-61	-15	-72	-3438	-15	1	3	-74	-87	-15	-67	-69.9384015291639826728	-83.8757435900274543883	-19.3473428428530240808	-69.592201828925098539
5.0.14.0	win	042919	14:10:26	007	1	game	3	selection	500	1	126	126	1	slot3	457	457	3	1	3	-15	-77	-61	-15	-72	-3459	-21	1	3	-63	-78	-21	-57	-67.4121041501128530626	-83.9817663892939947345	-21.8853129000447594876	-63.7285595969453808607
5.0.14.0	win	042919	14:10:26	007	1	game	3	iti	503	1	126	126	1	0	2000	457	3	1	3	-21	-77	-61	-21	-72	-3459	-21	1	3	-63	-78	-21	-57	-67.4121041501128530626	-83.9817663892939947345	-21.8853129000447594876	-63.7285595969453808607
5.0.14.0	win	042919	14:10:26	007	1	game	3	selection	504	1	127	127	1	slot3	451	451	3	1	3	-21	-77	-61	-21	-72	-3481	-22	1	3	-57	-78	-22	-72	-61.299512446012180078	-84.236141536938163199	-22.1682253232987207525	-67.5960707763212411692
5.0.14.0	win	042919	14:10:26	007	1	game	3	iti	507	1	127	127	1	0	2000	451	3	1	3	-22	-77	-61	-22	-72	-3481	-22	1	3	-57	-78	-22	-72	-61.299512446012180078	-84.236141536938163199	-22.1682253232987207525	-67.5960707763212411692
5.0.14.0	win	042919	14:10:26	007	1	game	3	selection	508	1	128	128	1	slot3	352	352	3	1	3	-22	-77	-61	-22	-72	-3496	-15	1	3	-57	-82	-15	-67	-59.4857658132608619894	-85.1932058193506236421	-22.5236959090613773071	-65.1920264971253402564
5.0.14.0	win	042919	14:10:26	007	1	game	3	iti	511	1	128	128	1	0	2000	352	3	1	3	-15	-77	-61	-15	-72	-3496	-15	1	3	-57	-82	-15	-67	-59.4857658132608619894	-85.1932058193506236421	-22.5236959090613773071	-65.1920264971253402564
5.0.14.0	win	042919	14:10:26	007	1	game	3	selection	512	1	129	129	1	slot3	563	563	3	1	3	-15	-77	-61	-15	-72	-3519	-23	1	3	-55	-80	-23	-68	-52.4804984146027706515	-81.0870560423019668406	-21.2193670982599016384	-64.0111858239943813942
5.0.14.0	win	042919	14:10:26	007	1	game	3	iti	515	1	129	129	1	0	2000	563	3	1	3	-23	-77	-61	-23	-72	-3519	-23	1	3	-55	-80	-23	-68	-52.4804984146027706515	-81.0870560423019668406	-21.2193670982599016384	-64.0111858239943813942
5.0.14.0	win	042919	14:10:26	007	1	game	3	selection	516	1	130	130	1	slot3	752	752	3	1	3	-23	-77	-61	-23	-72	-3541	-22	1	3	-56	-82	-22	-62	-52.9019040262647735062	-81.1429804155306158009	-20.7581783752068673721	-66.4475857721470362094
5.0.14.0	win	042919	14:10:26	007	1	game	3	iti	519	1	130	130	1	0	2000	752	3	1	3	-22	-77	-61	-22	-72	-3541	-22	1	3	-56	-82	-22	-62	-52.9019040262647735062	-81.1429804155306158009	-20.7581783752068673721	-66.4475857721470362094
5.0.14.0	win	042919	14:10:26	007	1	game	3	selection	520	1	131	131	1	slot3	604	604	3	1	3	-22	-77	-61	-22	-72	-3572	-31	1	3	-58	-87	-31	-60	-55.2529783654492661071	-78.6994369748064173109	-21.5217523604754852329	-67.3235905332489608099
5.0.14.0	win	042919	14:10:26	007	1	game	3	iti	523	1	131	131	1	0	2000	604	3	1	3	-31	-77	-61	-31	-72	-3572	-31	1	3	-58	-87	-31	-60	-55.2529783654492661071	-78.6994369748064173109	-21.5217523604754852329	-67.3235905332489608099
5.0.14.0	win	042919	14:10:26	007	1	game	3	selection	524	1	132	132	1	slot3	385	385	3	1	3	-31	-77	-61	-31	-72	-3591	-19	1	3	-57	-82	-19	-71	-54.1018523730587972409	-80.3485114927552643849	-19.7984296948080995548	-66.2806527941537666493
5.0.14.0	win	042919	14:10:26	007	1	game	3	iti	527	1	132	132	1	0	2000	385	3	1	3	-19	-77	-61	-19	-72	-3591	-19	1	3	-57	-82	-19	-71	-54.1018523730587972409	-80.3485114927552643849	-19.7984296948080995548	-66.2806527941537666493
5.0.14.0	win	042919	14:10:26	007	1	game	3	selection	528	1	133	133	1	slot3	1010	1010	3	1	3	-19	-77	-61	-19	-72	-3611	-20	1	3	-59	-85	-20	-71	-58.3121103612190552212	-81.0057761940913394483	-20.5550986745502335395	-66.5543394199148679036
5.0.14.0	win	042919	14:10:26	007	1	game	3	iti	531	1	133	133	1	0	2000	1010	3	1	3	-20	-77	-61	-20	-72	-3611	-20	1	3	-59	-85	-20	-71	-58.3121103612190552212	-81.0057761940913394483	-20.5550986745502335395	-66.5543394199148679036
5.0.14.0	win	042919	14:10:26	007	1	game	3	selection	532	1	134	134	1	slot3	614	614	3	1	3	-20	-77	-61	-20	-72	-3630	-19	1	3	-60	-87	-19	-61	-57.3619031746105747516	-82.5798138004605846163	-19.8852191934725510691	-68.1184392664834348352
5.0.14.0	win	042919	14:10:26	007	1	game	3	iti	535	1	134	134	1	0	2000	614	3	1	3	-19	-77	-61	-19	-72	-3630	-19	1	3	-60	-87	-19	-61	-57.3619031746105747516	-82.5798138004605846163	-19.8852191934725510691	-68.1184392664834348352
5.0.14.0	win	042919	14:10:26	007	1	game	3	selection	536	1	135	135	1	slot3	739	739	3	1	3	-19	-77	-61	-19	-72	-3643	-13	1	3	-54	-79	-13	-71	-52.5315167808051128873	-85.5820078868897127222	-14.974031694821407612	-72.0387064266431593751
5.0.14.0	win	042919	14:10:26	007	1	game	3	iti	539	1	135	135	1	0	2000	739	3	1	3	-13	-77	-61	-13	-72	-3643	-13	1	3	-54	-79	-13	-71	-52.5315167808051128873	-85.5820078868897127222	-14.974031694821407612	-72.0387064266431593751
5.0.14.0	win	042919	14:10:26	007	1	game	3	selection	540	1	136	136	1	slot3	527	527	3	1	3	-13	-77	-61	-13	-72	-3660	-17	1	3	-50	-86	-17	-76	-51.3552431153373944994	-83.7836142701190027537	-15.1518002902868929027	-72.6547163004093334848
5.0.14.0	win	042919	14:10:26	007	1	game	3	iti	543	1	136	136	1	0	2000	527	3	1	3	-17	-77	-61	-17	-72	-3660	-17	1	3	-50	-86	-17	-76	-51.3552431153373944994	-83.7836142701190027537	-15.1518002902868929027	-72.6547163004093334848
5.0.14.0	win	042919	14:10:26	007	1	game	3	selection	544	1	137	137	1	slot3	396	396	3	1	3	-17	-77	-61	-17	-72	-3674	-14	1	3	-56	-92	-14	-63	-52.6047253983751303963	-86.0306960234513411478	-14.4836321044039486594	-69.0333143290319242169
5.0.14.0	win	042919	14:10:26	007	1	game	3	iti	547	1	137	137	1	0	2000	396	3	1	3	-14	-77	-61	-14	-72	-3674	-14	1	3	-56	-92	-14	-63	-52.6047253983751303963	-86.0306960234513411478	-14.4836321044039486594	-69.0333143290319242169
5.0.14.0	win	042919	14:10:26	007	1	game	3	selection	548	1	138	138	1	slot3	663	663	3	1	3	-14	-77	-61	-14	-72	-3684	-10	1	3	-58	-84	-10	-70	-53.3885462388787175314	-83.8238386244917563772	-12.0178235121874958935	-68.5386625930038491106
5.0.14.0	win	042919	14:10:26	007	1	game	3	iti	551	1	138	138	1	0	2000	663	3	1	3	-10	-77	-61	-10	-72	-3684	-10	1	3	-58	-84	-10	-70	-53.3885462388787175314	-83.8238386244917563772	-12.0178235121874958935	-68.5386625930038491106
5.0.14.0	win	042919	14:10:26	007	1	game	3	selection	552	1	139	139	1	slot3	277	277	3	1	3	-10	-77	-61	-10	-72	-3688	-4	1	3	-52	-86	-4	-71	-52.7784579840183880606	-82.6702294996019872997	-8.3590836718680261441	-70.3140705360965512227
5.0.14.0	win	042919	14:10:26	007	1	game	3	iti	555	1	139	139	1	0	2000	277	3	1	3	-4	-77	-61	-4	-72	-3688	-4	1	3	-52	-86	-4	-71	-52.7784579840183880606	-82.6702294996019872997	-8.3590836718680261441	-70.3140705360965512227
5.0.14.0	win	042919	14:10:26	007	1	game	3	selection	556	1	140	140	1	slot3	1191	1191	3	1	3	-4	-77	-61	-4	-72	-3703	-15	1	3	-57	-82	-15	-76	-50.3473744710137509628	-81.9471045120724284061	-13.6333428428238701002	-73.038564382958384158
5.0.14.0	win	042919	14:10:26	007	1	game	3	iti	559	1	140	140	1	0	2000	1191	3	1	3	-15	-77	-61	-15	-72	-3703	-15	1	3	-57	-82	-15	-76	-50.3473744710137509628	-81.9471045120724284061	-13.6333428428238701002	-73.038564382958384158
5.0.14.0	win	042919	14:10:26	007	1	game	3	selection	560	1	141	141	1	slot3	359	359	3	1	3	-15	-77	-61	-15	-72	-3715	-12	1	3	-44	-79	-12	-71	-48.5793931453878258253	-82.286382990225007461	-13.5503198828606947757	-71.3654368058291481702
5.0.14.0	win	042919	14:10:26	007	1	game	3	iti	563	1	141	141	1	0	2000	359	3	1	3	-12	-77	-61	-12	-72	-3715	-12	1	3	-44	-79	-12	-71	-48.5793931453878258253	-82.286382990225007461	-13.5503198828606947757	-71.3654368058291481702
5.0.14.0	win	042919	14:10:26	007	1	game	3	selection	564	1	142	142	1	slot3	573	573	3	1	3	-12	-77	-61	-12	-72	-3723	-8	1	3	-46	-83	-8	-70	-50.675918610834848721	-80.4243383681446317723	-8.2591430191963937091	-68.2476125250928475907
5.0.14.0	win	042919	14:10:26	007	1	game	3	iti	567	1	142	142	1	0	2000	573	3	1	3	-8	-77	-61	-8	-72	-3723	-8	1	3	-46	-83	-8	-70	-50.675918610834848721	-80.4243383681446317723	-8.2591430191963937091	-68.2476125250928475907
5.0.14.0	win	042919	14:10:26	007	1	game	3	selection	568	1	143	143	1	slot3	509	509	3	1	3	-8	-77	-61	-8	-72	-3737	-14	1	3	-51	-77	-14	-68	-47.8867243053995039759	-81.9725646172052648808	-10.786889503933675627	-70.0029758168540041652
5.0.14.0	win	042919	14:10:26	007	1	game	3	iti	571	1	143	143	1	0	2000	509	3	1	3	-14	-77	-61	-14	-72	-3737	-14	1	3	-51	-77	-14	-68	-47.8867243053995039759	-81.9725646172052648808	-10.786889503933675627	-70.0029758168540041652
5.0.14.0	win	042919	14:10:26	007	1	game	3	selection	572	1	144	144	1	slot3	554	554	3	1	3	-14	-77	-61	-14	-72	-3747	-10	1	3	-50	-80	-10	-77	-50.9261209844369844291	-80.7576885707259322089	-10.671797769554208557	-68.772389008866440463
5.0.14.0	win	042919	14:10:26	007	1	game	3	iti	575	1	144	144	1	0	2000	554	3	1	3	-10	-77	-61	-10	-72	-3747	-10	1	3	-50	-80	-10	-77	-50.9261209844369844291	-80.7576885707259322089	-10.671797769554208557	-68.772389008866440463
5.0.14.0	win	042919	14:10:26	007	1	game	3	selection	576	1	145	145	1	slot3	637	637	3	1	3	-10	-77	-61	-10	-72	-3760	-13	1	3	-58	-81	-13	-62	-51.229585797714193518	-85.0087533928551408735	-8.3744242265558579419	-66.3677515602884255941
5.0.14.0	win	042919	14:10:26	007	1	game	3	iti	579	1	145	145	1	0	2000	637	3	1	3	-13	-77	-61	-13	-72	-3760	-13	1	3	-58	-81	-13	-62	-51.229585797714193518	-85.0087533928551408735	-8.3744242265558579419	-66.3677515602884255941
5.0.14.0	win	042919	14:10:26	007	1	game	3	selection	580	1	146	146	1	slot3	654	654	3	1	3	-13	-77	-61	-13	-72	-3775	-15	1	3	-45	-80	-15	-60	-46.8153436277618766326	-81.6512091744867660736	-10.2348759919013918562	-63.4456497682382760672
5.0.14.0	win	042919	14:10:26	007	1	game	3	iti	583	1	146	146	1	0	2000	654	3	1	3	-15	-77	-61	-15	-72	-3775	-15	1	3	-45	-80	-15	-60	-46.8153436277618766326	-81.6512091744867660736	-10.2348759919013918562	-63.4456497682382760672
5.0.14.0	win	042919	14:10:26	007	1	game	3	selection	584	1	147	147	1	slot3	469	469	3	1	3	-15	-77	-61	-15	-72	-3793	-18	1	3	-47	-79	-18	-58	-47.2809801403956626586	-79.6118795761784667775	-13.0502426947427494497	-60.7603536056333339843
5.0.14.0	win	042919	14:10:26	007	1	game	3	iti	587	1	147	147	1	0	2000	469	3	1	3	-18	-77	-61	-18	-72	-3793	-18	1	3	-47	-79	-18	-58	-47.2809801403956626586	-79.6118795761784667775	-13.0502426947427494497	-60.7603536056333339843
5.0.14.0	win	042919	14:10:26	007	1	game	3	selection	588	1	148	148	1	slot3	483	483	3	1	3	-18	-77	-61	-18	-72	-3807	-14	1	3	-58	-78	-14	-51	-48.5364772738481917713	-79.091732328499674054	-14.5415798133699052386	-59.2778252629480135738
5.0.14.0	win	042919	14:10:26	007	1	game	3	iti	591	1	148	148	1	0	2000	483	3	1	3	-14	-77	-61	-14	-72	-3807	-14	1	3	-58	-78	-14	-51	-48.5364772738481917713	-79.091732328499674054	-14.5415798133699052386	-59.2778252629480135738
5.0.14.0	win	042919	14:10:26	007	1	game	3	selection	592	1	149	149	1	slot3	516	516	3	1	3	-14	-77	-61	-14	-72	-3817	-10	1	3	-44	-80	-10	-51	-44.9121352878778026252	-76.9516608679072788846	-11.1576109694226452973	-56.6160719799023368637
5.0.14.0	win	042919	14:10:26	007	1	game	3	iti	595	1	149	149	1	0	2000	516	3	1	3	-10	-77	-61	-10	-72	-3817	-10	1	3	-44	-80	-10	-51	-44.9121352878778026252	-76.9516608679072788846	-11.1576109694226452973	-56.6160719799023368637
5.0.14.0	win	042919	14:10:26	007	1	game	3	selection	596	1	150	150	1	slot3	617	617	3	1	3	-10	-77	-61	-10	-72	-3828	-11	1	3	-41	-76	-11	-62	-43.4434094904297865014	-73.4452375405585939916	-16.7499556670282920834	-57.0121287336157536174
5.0.14.0	win	042919	14:10:26	007	1	game	3	iti	599	1	150	150	1	0	2000	617	3	1	3	-11	-77	-61	-11	-72	-3828	-11	1	3	-41	-76	-11	-62	-43.4434094904297865014	-73.4452375405585939916	-16.7499556670282920834	-57.0121287336157536174
